section id,recording id,timestamp [ns],gyro x [deg/s],gyro y [deg/s],gyro z [deg/s],acceleration x [G],acceleration y [G],acceleration z [G],roll [deg],pitch [deg],yaw [deg],quaternion w,quaternion x,quaternion y,quaternion z
4b727e15-7be2-4d33-b379-0d284bc50678,e4e077f0-dce6-4b13-8576-32f0c76399f2,1689620432354680081,32.203674,-4.005432,-58.858871,-0.053223,0.106445,0.952148,-0.011637381898329528,0.06578350426415899,2.4508826598035416,0.33852195739746094,0.01660480909049511,0.028974836692214012,0.9403656721115112
4b727e15-7be2-4d33-b379-0d284bc50678,e4e077f0-dce6-4b13-8576-32f0c76399f2,1689620432370982081,30.984879,-2.969742,-57.329178,-0.067383,0.110352,0.947266,-0.01127568810227283,0.06835441043102383,2.4465359704163427,0.34055179357528687,0.01693512499332428,0.03020825982093811,0.9395877122879028
4b727e15-7be2-4d33-b379-0d284bc50678,e4e077f0-dce6-4b13-8576-32f0c76399f2,1689620432387284081,30.250549,-2.296448,-55.440903,-0.059082,0.116211,0.940918,-0.010895075073913556,0.0708810583507632,2.442332263932149,0.3425115644931793,0.01725216582417488,0.03142401948571205,0.9388294219970703
4b727e15-7be2-4d33-b379-0d284bc50678,e4e077f0-dce6-4b13-8576-32f0c76399f2,1689620432403586081,28.482437,-2.11525,-53.483963,-0.058594,0.114258,0.949707,-0.010503552634722886,0.07325185272233754,2.438273475070787,0.344401091337204,0.017540087923407555,0.03256855905056,0.9380935430526733
4b727e15-7be2-4d33-b379-0d284bc50678,e4e077f0-dce6-4b13-8576-32f0c76399f2,1689620432419888081,27.078629,-1.379013,-51.408768,-0.073242,0.121582,0.939941,-0.0100048519517027,0.07553479638375439,2.4343649770665774,0.34621623158454895,0.017764758318662643,0.033690717071294785,0.9373812675476074
4b727e15-7be2-4d33-b379-0d284bc50678,e4e077f0-dce6-4b13-8576-32f0c76399f2,1689620432436190081,25.735855,-1.260757,-49.333572,-0.075195,0.124512,0.939941,-0.009494885933722653,0.07771671425597702,2.430610398138527,0.3479570746421814,0.01796836405992508,0.03476808965206146,0.9366931915283203
4b727e15-7be2-4d33-b379-0d284bc50678,e4e077f0-dce6-4b13-8576-32f0c76399f2,1689620432452492081,24.330139,-0.404358,-47.319412,-0.067383,0.114746,0.927734,-0.008956058908970842,0.07974799864378287,2.42700801723435,0.3496245741844177,0.018133532255887985,0.035780683159828186,0.9360307455062866
4b727e15-7be2-4d33-b379-0d284bc50678,e4e077f0-dce6-4b13-8576-32f0c76399f2,1689620432468794081,22.865295,-0.343323,-45.183182,-0.06543,0.125488,0.956055,-0.008426731349728484,0.08168984499753744,2.423565717340814,0.3512156903743744,0.01828821375966072,0.036750707775354385,0.935394287109375
4b727e15-7be2-4d33-b379-0d284bc50678,e4e077f0-dce6-4b13-8576-32f0c76399f2,1689620432485096081,21.89064,-0.040054,-43.535233,-0.068359,0.115723,0.950195,-0.00786889992820879,0.08351292607101347,2.420245284101246,0.35274797677993774,0.018409740179777145,0.03767089545726776,0.9347785115242004
4b727e15-7be2-4d33-b379-0d284bc50678,e4e077f0-dce6-4b13-8576-32f0c76399f2,1689620432487102081,20.85495,0.205994,-41.460037,-0.057129,0.119629,0.967773,-0.007343995676434357,0.0852570514069743,2.4170839261464843,0.3542051911354065,0.01853271573781967,0.03854949772357941,0.9341890215873718
4b727e15-7be2-4d33-b379-0d284bc50678,e4e077f0-dce6-4b13-8576-32f0c76399f2,1689620432489108081,20.057678,0.205994,-39.995193,-0.056641,0.11377,0.963379,-0.006826998825632597,0.08691173422881904,2.414032143719019,0.3556102514266968,0.01864415779709816,0.03938562422990799,0.9336179494857788
4b727e15-7be2-4d33-b379-0d284bc50678,e4e077f0-dce6-4b13-8576-32f0c76399f2,1689620432491114081,19.569397,0.205994,-38.228989,-0.069336,0.123047,0.974609,-0.006270050589831758,0.08855230271181835,2.4111090082784954,0.3569529950618744,0.018734455108642578,0.04022321477532387,0.9330678582191467
4b727e15-7be2-4d33-b379-0d284bc50678,e4e077f0-dce6-4b13-8576-32f0c76399f2,1689620432493120081,18.838882,0.265121,-36.699295,-0.053711,0.134766,0.96582,-0.0057752619549836905,0.09017546171036385,2.4083054756805664,0.3582398295402527,0.0188506580889225,0.04104246199131012,0.9325364828109741
4b727e15-7be2-4d33-b379-0d284bc50678,e4e077f0-dce6-4b13-8576-32f0c76399f2,1689620432495126081,18.350601,0.143051,-35.421371,-0.065918,0.131836,0.973144,-0.005249825205173453,0.09174176086925791,2.405593623326866,0.3594822585582733,0.018942780792713165,0.0418413020670414,0.932020902633667
4b727e15-7be2-4d33-b379-0d284bc50678,e4e077f0-dce6-4b13-8576-32f0c76399f2,1689620432497132081,17.433167,-0.099182,-33.891678,-0.05957,0.122559,0.970703,-0.004775175174393105,0.09319659177990951,2.40299854864912,0.3606708347797394,0.019038185477256775,0.04257996380329132,0.9315261840820312
4b727e15-7be2-4d33-b379-0d284bc50678,e4e077f0-dce6-4b13-8576-32f0c76399f2,1689620432499138081,16.824722,-0.528336,-32.426834,-0.052246,0.133789,0.981445,-0.0043686944404686765,0.0946365068784365,2.4005161295964648,0.36180734634399414,0.019162140786647797,0.043300218880176544,0.9310495853424072
4b727e15-7be2-4d33-b379-0d284bc50678,e4e077f0-dce6-4b13-8576-32f0c76399f2,1689620432501144081,16.334534,-0.465393,-31.206131,-0.060547,0.140137,0.963379,-0.0039331114376314575,0.09606334515206144,2.3981225421466466,0.36290088295936584,0.019270047545433044,0.04402025416493416,0.930587887763977
4b727e15-7be2-4d33-b379-0d284bc50678,e4e077f0-dce6-4b13-8576-32f0c76399f2,1689620432503150081,15.420914,-0.890732,-29.684067,-0.069824,0.134766,0.962402,-0.0035038035924719138,0.09739435015696336,2.395840380363779,0.3639424443244934,0.01936270482838154,0.044695429503917694,0.9301468729972839
4b727e15-7be2-4d33-b379-0d284bc50678,e4e077f0-dce6-4b13-8576-32f0c76399f2,1689620432505156081,14.503479,-0.953674,-28.581619,-0.072266,0.134277,0.957519,-0.003076449084766691,0.09864981292428983,2.3936397261898645,0.36494579911231995,0.019442209973931313,0.045335739850997925,0.9297209978103638
4b727e15-7be2-4d33-b379-0d284bc50678,e4e077f0-dce6-4b13-8576-32f0c76399f2,1689620432507162081,13.469696,-1.075745,-26.8116,-0.062988,0.135742,0.959473,-0.0027054140449263467,0.09982517777274816,2.3915761890157414,0.36588650941848755,0.01953152008354664,0.045929718762636185,0.9293201565742493
4b727e15-7be2-4d33-b379-0d284bc50678,e4e077f0-dce6-4b13-8576-32f0c76399f2,1689620432509168081,12.310028,-0.770569,-25.224686,-0.05127,0.13916,0.95459,-0.002368075443701195,0.10092482895447183,2.3896370790965307,0.36677008867263794,0.019620954990386963,0.04648341238498688,0.9289423823356628
4b727e15-7be2-4d33-b379-0d284bc50678,e4e077f0-dce6-4b13-8576-32f0c76399f2,1689620432511174081,11.331558,-1.016617,-23.515701,-0.069336,0.13916,0.95166,-0.001992037216995389,0.1019454502384095,2.3878203365944364,0.36759597063064575,0.019676117226481438,0.04700858145952225,0.9285882711410522
4b727e15-7be2-4d33-b379-0d284bc50678,e4e077f0-dce6-4b13-8576-32f0c76399f2,1689620432513180081,9.988785,-1.626968,-22.111893,-0.066406,0.148438,0.948242,-0.0016836982750244038,0.10289641071683517,2.386110827446008,0.36837369203567505,0.019748296588659286,0.04748992621898651,0.9282540082931519
4b727e15-7be2-4d33-b379-0d284bc50678,e4e077f0-dce6-4b13-8576-32f0c76399f2,1689620432515186081,8.583069,-1.25885,-20.341873,-0.057617,0.139648,0.94873,-0.0013945271886031437,0.10370387044529829,2.3845389996479898,0.3690887987613678,0.019800430163741112,0.047902412712574005,0.9279475808143616
4b727e15-7be2-4d33-b379-0d284bc50678,e4e077f0-dce6-4b13-8576-32f0c76399f2,1689620432518810081,6.996155,-0.953674,-18.880844,-0.070312,0.141602,0.939941,-0.0010454051399332227,0.10439877292624072,2.383073280273039,0.3697538673877716,0.019802048802375793,0.04827476292848587,0.9276634454727173
4b727e15-7be2-4d33-b379-0d284bc50678,e4e077f0-dce6-4b13-8576-32f0c76399f2,1689620432522434081,5.779266,-1.075745,-17.110825,-0.070801,0.134277,0.946289,-0.0007179327605260473,0.10496831606060884,2.3817417603069395,0.37035804986953735,0.01978779025375843,0.04858631640672684,0.9274064302444458
4b727e15-7be2-4d33-b379-0d284bc50678,e4e077f0-dce6-4b13-8576-32f0c76399f2,1689620432526058081,4.737854,-1.075745,-15.27977,-0.072754,0.141602,0.946777,-0.00039808223944982874,0.10548432472608979,2.3805487446520113,0.37089842557907104,0.01976417750120163,0.048873040825128555,0.9271758794784546
4b727e15-7be2-4d33-b379-0d284bc50678,e4e077f0-dce6-4b13-8576-32f0c76399f2,1689620432529682081,3.152847,-0.890732,-14.116287,-0.075684,0.150879,0.943848,-6.31110694699227e-05,0.10591427851334874,2.3794426822033143,0.3713987171649933,0.019715789705514908,0.04912358522415161,0.9269633889198303
4b727e15-7be2-4d33-b379-0d284bc50678,e4e077f0-dce6-4b13-8576-32f0c76399f2,1689620432533306081,2.481461,-1.073837,-12.350082,-0.078125,0.152832,0.949219,0.000252373862480741,0.10629681013158544,2.3784703902602433,0.3718377649784088,0.019664598628878593,0.049349911510944366,0.9267764091491699
4b727e15-7be2-4d33-b379-0d284bc50678,e4e077f0-dce6-4b13-8576-32f0c76399f2,1689620432536930081,1.321793,-0.650406,-10.759354,-0.07373,0.155762,0.949219,0.0005697682821656088,0.10660117180057725,2.377620829204388,0.372220516204834,0.019595157355070114,0.04954163730144501,0.926613986492157
4b727e15-7be2-4d33-b379-0d284bc50678,e4e077f0-dce6-4b13-8576-32f0c76399f2,1689620432540554081,0.770569,-0.282288,-9.17244,-0.080078,0.13623,0.957031,0.0009252434769456653,0.10678607523368382,2.376889598967973,0.37254858016967773,0.019483044743537903,0.04968633875250816,0.926476776599884
4b727e15-7be2-4d33-b379-0d284bc50678,e4e077f0-dce6-4b13-8576-32f0c76399f2,1689620432544178081,0.34523,0.143051,-7.829666,-0.063477,0.142578,0.970703,0.0012376604433778108,0.1069563025895269,2.376267625948894,0.3728271722793579,0.019385527819395065,0.04981736093759537,0.9263597130775452
4b727e15-7be2-4d33-b379-0d284bc50678,e4e077f0-dce6-4b13-8576-32f0c76399f2,1689620432547802081,-0.083923,0.816345,-5.941391,-0.060547,0.149414,0.972168,0.0015732354480406917,0.10711869171353622,2.3757911578677295,0.37303781509399414,0.019272275269031525,0.04995054006576538,0.926270067691803
4b727e15-7be2-4d33-b379-0d284bc50678,e4e077f0-dce6-4b13-8576-32f0c76399f2,1689620432551426081,-0.814438,1.791,-4.476547,-0.055176,0.126465,0.973144,0.00194899045369852,0.10713848223401169,2.375428725645003,0.3731960654258728,0.01911100745201111,0.05002632737159729,0.926205575466156
4b727e15-7be2-4d33-b379-0d284bc50678,e4e077f0-dce6-4b13-8576-32f0c76399f2,1689620432555050081,-1.060486,2.281189,-3.011703,-0.057129,0.14209,0.998535,0.0023555307965501373,0.10718843071896376,2.37517738829716,0.37330174446105957,0.018938357010483742,0.0501229353249073,0.9261613488197327
4b727e15-7be2-4d33-b379-0d284bc50678,e4e077f0-dce6-4b13-8576-32f0c76399f2,1689620432558674081,-1.058578,3.072739,-1.665115,-0.041504,0.133789,0.996582,0.002750089614978666,0.10720785799991615,2.375034977870009,0.3733575940132141,0.018762847408652306,0.050204239785671234,0.9261379837989807
4b727e15-7be2-4d33-b379-0d284bc50678,e4e077f0-dce6-4b13-8576-32f0c76399f2,1689620432562298081,-1.302719,3.927231,-0.570297,-0.039551,0.140137,0.986816,0.0031914337416973056,0.10723675538560853,2.3749773363496316,0.373372882604599,0.01856531947851181,0.050299473106861115,0.9261306524276733
4b727e15-7be2-4d33-b379-0d284bc50678,e4e077f0-dce6-4b13-8576-32f0c76399f2,1689620432565922081,-1.365662,4.905701,-0.078201,-0.040527,0.146973,0.988281,0.0037045537908130402,0.10728619092430945,2.374956796906219,0.3733689486980438,0.018337463960051537,0.05041796714067459,0.9261302947998047
4b727e15-7be2-4d33-b379-0d284bc50678,e4e077f0-dce6-4b13-8576-32f0c76399f2,1689620432569546081,-1.424789,4.846573,0.715256,-0.03418,0.147461,1.015625,0.004180073412563025,0.10732188006059205,2.3749996543644016,0.37333670258522034,0.018122848123311996,0.05052364990115166,0.9261417984962463
4b727e15-7be2-4d33-b379-0d284bc50678,e4e077f0-dce6-4b13-8576-32f0c76399f2,1689620432573170081,-1.119614,5.823135,1.996994,-0.026367,0.135742,0.999512,0.004687622051625573,0.10734328379607963,2.375143529079958,0.37325701117515564,0.017888173460960388,0.05062958970665932,0.92617267370224
4b727e15-7be2-4d33-b379-0d284bc50678,e4e077f0-dce6-4b13-8576-32f0c76399f2,1689620432576794081,-1.363754,5.514145,2.30217,-0.034668,0.141113,0.989258,0.005199485614184422,0.10737078242214874,2.3753075158824806,0.3731677830219269,0.017652109265327454,0.05073929578065872,0.9262071847915649
4b727e15-7be2-4d33-b379-0d284bc50678,e4e077f0-dce6-4b13-8576-32f0c76399f2,1689620432580418081,-1.422882,5.760193,3.095627,-0.030762,0.141602,0.983398,0.005706655329086374,0.10739814193085592,2.375533897054949,0.3730497658252716,0.017416592687368393,0.05084856599569321,0.9262531399726868
4b727e15-7be2-4d33-b379-0d284bc50678,e4e077f0-dce6-4b13-8576-32f0c76399f2,1689620432583977081,-1.422882,5.760193,3.396988,-0.035156,0.137695,0.981934,0.006226190989962977,0.10741153464331456,2.3757820150406492,0.3729214668273926,0.017172157764434814,0.05095380172133446,0.9263036251068115
4b727e15-7be2-4d33-b379-0d284bc50678,e4e077f0-dce6-4b13-8576-32f0c76399f2,1689620432587536081,-1.605988,5.455017,4.133224,-0.035156,0.129395,0.987305,0.006714629707290248,0.1073781519255972,2.3760862381795462,0.37276849150657654,0.016931943595409393,0.051031991839408875,0.926365315914154
4b727e15-7be2-4d33-b379-0d284bc50678,e4e077f0-dce6-4b13-8576-32f0c76399f2,1689620432591095081,-1.974106,5.208969,4.4384,-0.032715,0.134766,0.975098,0.007171340906324676,0.10734267984707098,2.3764151875459567,0.3726048767566681,0.016705380752682686,0.05110343545675278,0.9264312982559204
4b727e15-7be2-4d33-b379-0d284bc50678,e4e077f0-dce6-4b13-8576-32f0c76399f2,1689620432594654081,-2.096176,5.334854,4.804611,-0.033691,0.140137,0.975586,0.007636314971598468,0.10731848082438625,2.3767719770177855,0.3724279999732971,0.016476355493068695,0.051181793212890625,0.9265021681785583
4b727e15-7be2-4d33-b379-0d284bc50678,e4e077f0-dce6-4b13-8576-32f0c76399f2,1689620432598213081,-2.828598,5.025864,5.167007,-0.032715,0.131348,0.970703,0.008069915602879103,0.10720838584649094,2.3771577821309076,0.37223947048187256,0.01624508760869503,0.05121467635035515,0.9265801906585693
4b727e15-7be2-4d33-b379-0d284bc50678,e4e077f0-dce6-4b13-8576-32f0c76399f2,1689620432601772081,-3.196716,4.844666,5.598068,-0.043945,0.129395,0.96875,0.00852745300386382,0.10706489257968843,2.3775719687859773,0.3720375597476959,0.01599576696753502,0.051236677914857864,0.926664412021637
4b727e15-7be2-4d33-b379-0d284bc50678,e4e077f0-dce6-4b13-8576-32f0c76399f2,1689620432605331081,-3.318787,4.295349,5.903244,-0.028809,0.124512,0.972656,0.008881651097384613,0.10689316984623609,2.3813222633085673,0.3702922463417053,0.01570359617471695,0.05125255137681961,0.9273673295974731
4b727e15-7be2-4d33-b379-0d284bc50678,e4e077f0-dce6-4b13-8576-32f0c76399f2,1689620432608890081,-4.293442,4.049301,6.269455,-0.046875,0.133301,0.97168,0.009281954973466795,0.1066821764459565,2.384939427396002,0.36860668659210205,0.015386193059384823,0.05125676095485687,0.9280436635017395
4b727e15-7be2-4d33-b379-0d284bc50678,e4e077f0-dce6-4b13-8576-32f0c76399f2,1689620432612449081,-4.537582,3.56102,6.757736,-0.034668,0.138672,0.965332,0.009593820015032051,0.10647684798341278,2.3885354087697386,0.3669319450855255,0.015111474320292473,0.05124623328447342,0.9287121891975403
4b727e15-7be2-4d33-b379-0d284bc50678,e4e077f0-dce6-4b13-8576-32f0c76399f2,1689620432616008081,-4.718781,3.501892,7.368088,-0.025879,0.133301,0.969727,0.009861468156526602,0.10623711727304885,2.3890938870822738,0.36666861176490784,0.014928853139281273,0.051188208162784576,0.92882239818573
4b727e15-7be2-4d33-b379-0d284bc50678,e4e077f0-dce6-4b13-8576-32f0c76399f2,1689620432619567081,-4.966736,3.135681,7.734299,-0.037109,0.134277,0.977539,0.010140090801079414,0.10598078946853076,2.3896761946998475,0.36639413237571716,0.014737516641616821,0.05112456530332565,0.9289372563362122
4b727e15-7be2-4d33-b379-0d284bc50678,e4e077f0-dce6-4b13-8576-32f0c76399f2,1689620432623126081,-5.45311,2.767563,8.34465,-0.029785,0.128418,0.98584,0.010357037592580354,0.10566384241523294,2.3903086088156824,0.36609867215156555,0.014562476426362991,0.05102173611521721,0.9290621280670166
4b727e15-7be2-4d33-b379-0d284bc50678,e4e077f0-dce6-4b13-8576-32f0c76399f2,1689620432626685081,-5.512238,2.342224,9.077072,-0.037109,0.121582,0.988281,0.010563573325295292,0.10531620279181485,2.3909941201418925,0.36577916145324707,0.014385365881025791,0.05090302228927612,0.9291971921920776
4b727e15-7be2-4d33-b379-0d284bc50678,e4e077f0-dce6-4b13-8576-32f0c76399f2,1689620432630244081,-5.57518,2.222061,9.748459,-0.030762,0.114258,0.990234,0.01073000202506924,0.10493934872352381,2.3917334458759276,0.36543595790863037,0.014220253564417362,0.05076367035508156,0.9293424487113953
4b727e15-7be2-4d33-b379-0d284bc50678,e4e077f0-dce6-4b13-8576-32f0c76399f2,1689620432633803081,-5.147934,2.401352,10.110855,-0.044434,0.11377,0.993164,0.010959049066467719,0.10459326557801843,2.3924951309324425,0.3650803864002228,0.014031208120286465,0.05065008997917175,0.9294912219047546
4b727e15-7be2-4d33-b379-0d284bc50678,e4e077f0-dce6-4b13-8576-32f0c76399f2,1689620432637362081,-5.332947,2.464294,11.087418,-0.037109,0.121094,0.998047,0.011156280092325995,0.10426134188712946,2.393334495419773,0.36468929052352905,0.01385765802115202,0.05053768679499626,0.9296534657478333
4b727e15-7be2-4d33-b379-0d284bc50678,e4e077f0-dce6-4b13-8576-32f0c76399f2,1689620432640921081,-5.086899,2.462387,11.270523,-0.040039,0.128418,1.00293,0.011362595845874299,0.10397494807347689,2.3941865360144,0.3642914593219757,0.013687963597476482,0.05044804885983467,0.9298168420791626
4b727e15-7be2-4d33-b379-0d284bc50678,e4e077f0-dce6-4b13-8576-32f0c76399f2,1689620432644480081,-4.903793,2.462387,11.880875,-0.042969,0.120605,0.992187,0.011575200514755222,0.10367890561865063,2.395083947346234,0.3638724386692047,0.013512522913515568,0.05035524070262909,0.9299885034561157
4b727e15-7be2-4d33-b379-0d284bc50678,e4e077f0-dce6-4b13-8576-32f0c76399f2,1689620432648039081,-5.270004,2.401352,12.189865,-0.032227,0.120605,0.996094,0.011739198289564065,0.10335529685738888,2.3960093892041576,0.3634418845176697,0.013354053720831871,0.05024082213640213,0.9301652908325195
4b727e15-7be2-4d33-b379-0d284bc50678,e4e077f0-dce6-4b13-8576-32f0c76399f2,1689620432651598081,-5.025864,3.072739,12.495041,-0.028809,0.122559,1.008301,0.011937657898814132,0.1030543616401768,2.400373388221883,0.3614100515842438,0.01309754978865385,0.050165656954050064,0.9309643507003784
4b727e15-7be2-4d33-b379-0d284bc50678,e4e077f0-dce6-4b13-8576-32f0c76399f2,1689620432655157081,-4.66156,3.013611,12.983322,-0.022461,0.112793,1.007812,0.012103062458513668,0.10274640067184444,2.404787879161791,0.3593538701534271,0.012854307889938354,0.05008072406053543,0.9317679405212402
4b727e15-7be2-4d33-b379-0d284bc50678,e4e077f0-dce6-4b13-8576-32f0c76399f2,1689620432658716081,-4.415512,3.072739,13.288498,-0.031738,0.122559,1.001953,0.012306258239919866,0.10249678912485972,2.4091843173084047,0.3573026955127716,0.012604777701199055,0.05002880096435547,0.9325625896453857
4b727e15-7be2-4d33-b379-0d284bc50678,e4e077f0-dce6-4b13-8576-32f0c76399f2,1689620432662386081,-4.415512,2.889633,13.349533,-0.044922,0.116699,1.01416,0.012544190642396471,0.10222159139689765,2.413294323047882,0.35538288950920105,0.012341931462287903,0.04996848851442337,0.9333025813102722
4b727e15-7be2-4d33-b379-0d284bc50678,e4e077f0-dce6-4b13-8576-32f0c76399f2,1689620432666056081,-4.232407,3.072739,13.288498,-0.024902,0.114258,1.00293,0.012719429570971105,0.10195834126185786,2.4173131573654056,0.35350555181503296,0.012113049626350403,0.04990125074982643,0.9340218901634216
4b727e15-7be2-4d33-b379-0d284bc50678,e4e077f0-dce6-4b13-8576-32f0c76399f2,1689620432669726081,-4.110336,2.950668,13.593674,-0.043945,0.124512,1.007812,0.012955368224650925,0.10174137153134952,2.421292717548931,0.35164305567741394,0.011865247040987015,0.04986535757780075,0.934729814529419
4b727e15-7be2-4d33-b379-0d284bc50678,e4e077f0-dce6-4b13-8576-32f0c76399f2,1689620432673396081,-3.684998,2.708435,13.776779,-0.027832,0.106934,1.007812,0.01310953388467199,0.10149172320301922,2.42234022816076,0.35115259885787964,0.011723155155777931,0.04978196322917938,0.9349203705787659
4b727e15-7be2-4d33-b379-0d284bc50678,e4e077f0-dce6-4b13-8576-32f0c76399f2,1689620432677066081,-3.501892,2.6474,13.776779,-0.031738,0.128906,1.001465,0.013273953906624735,0.10134215881258414,2.4233860376970293,0.35066136717796326,0.011593974195420742,0.04974700137972832,0.9351082444190979
4b727e15-7be2-4d33-b379-0d284bc50678,e4e077f0-dce6-4b13-8576-32f0c76399f2,1689620432680736081,-3.013611,2.464294,13.776779,-0.02832,0.117676,1.016113,0.01341035483063589,0.10118232572242343,2.424432873433257,0.35017040371894836,0.011476114392280579,0.04970221966505051,0.9352959990501404
4b727e15-7be2-4d33-b379-0d284bc50678,e4e077f0-dce6-4b13-8576-32f0c76399f2,1689620432684406081,-2.767563,2.038956,14.14299,-0.027832,0.121094,1.012695,0.013509684898921634,0.10105618624506518,2.425507527381933,0.3496668338775635,0.011380850337445736,0.04966675862669945,0.9354874491691589
4b727e15-7be2-4d33-b379-0d284bc50678,e4e077f0-dce6-4b13-8576-32f0c76399f2,1689620432688076081,-2.523422,2.096176,14.017105,-0.030762,0.118652,1.010742,0.013625559523838936,0.10094049290774786,2.429384700623689,0.3478511571884155,0.011210146360099316,0.04965474084019661,0.9361668229103088
4b727e15-7be2-4d33-b379-0d284bc50678,e4e077f0-dce6-4b13-8576-32f0c76399f2,1689620432691746081,-1.976013,1.548767,14.505386,-0.040527,0.125977,1.01709,0.013732791058488632,0.10089236186326746,2.433177100002328,0.34607329964637756,0.01105740200728178,0.049671925604343414,0.9368263483047485
4b727e15-7be2-4d33-b379-0d284bc50678,e4e077f0-dce6-4b13-8576-32f0c76399f2,1689620432695416081,-1.974106,1.424789,14.631271,-0.03125,0.121094,1.007324,0.01379466915795784,0.10083018512503711,2.4369251698200256,0.3443162441253662,0.01092456467449665,0.04967407509684563,0.9374750256538391
4b727e15-7be2-4d33-b379-0d284bc50678,e4e077f0-dce6-4b13-8576-32f0c76399f2,1689620432699086081,-1.422882,0.87738,14.993668,-0.03418,0.122559,1.001465,0.013823701121151747,0.10081763391680816,2.440782539777912,0.34250694513320923,0.010812968946993351,0.04969413951039314,0.9381377696990967
4b727e15-7be2-4d33-b379-0d284bc50678,e4e077f0-dce6-4b13-8576-32f0c76399f2,1689620432702756081,-1.302719,0.204086,15.359879,-0.026367,0.126953,1.003906,0.013769234550321733,0.10083059271973102,2.444652956914278,0.34069201350212097,0.010744558647274971,0.04971177503466606,0.9387982487678528
4b727e15-7be2-4d33-b379-0d284bc50678,e4e077f0-dce6-4b13-8576-32f0c76399f2,1689620432706426081,-1.302719,0.143051,15.974045,-0.026367,0.10791,0.996582,0.013706119871074361,0.1007750279982222,2.448531756331793,0.33887287974357605,0.010668338276445866,0.049695730209350586,0.9394581913948059
4b727e15-7be2-4d33-b379-0d284bc50678,e4e077f0-dce6-4b13-8576-32f0c76399f2,1689620432710096081,-1.243591,-0.282288,16.336441,-0.03125,0.12207,0.99707,0.013626797949652759,0.10077772580221217,2.4521915728604458,0.33715513348579407,0.010615122504532337,0.04970306530594826,0.9400762319564819
4b727e15-7be2-4d33-b379-0d284bc50678,e4e077f0-dce6-4b13-8576-32f0c76399f2,1689620432713766081,-1.119614,-0.833511,16.523361,-0.030762,0.117676,0.993164,0.013503246563733669,0.10077464259932001,2.4557834290559586,0.33546939492225647,0.01058343704789877,0.049699876457452774,0.9406796097755432
4b727e15-7be2-4d33-b379-0d284bc50678,e4e077f0-dce6-4b13-8576-32f0c76399f2,1689620432717436081,-1.363754,-1.016617,17.129898,-0.032715,0.11377,0.979004,0.013369793897081496,0.10074431745269441,2.4593719444765867,0.33378469944000244,0.010551982559263706,0.049682244658470154,0.9412800073623657
4b727e15-7be2-4d33-b379-0d284bc50678,e4e077f0-dce6-4b13-8576-32f0c76399f2,1689620432721106081,-1.365662,-0.953674,17.313004,-0.036133,0.118164,0.989746,0.013252610230665776,0.10072646205920982,2.4630716327696542,0.3320460319519043,0.010512279346585274,0.04967381805181503,0.941895604133606
4b727e15-7be2-4d33-b379-0d284bc50678,e4e077f0-dce6-4b13-8576-32f0c76399f2,1689620432724776081,-1.605988,-1.25885,17.744064,-0.020508,0.116699,0.981445,0.013050502036436979,0.10068831073270981,2.4667961729213674,0.3302968442440033,0.010508686304092407,0.04964195564389229,0.9425121545791626
4b727e15-7be2-4d33-b379-0d284bc50678,e4e077f0-dce6-4b13-8576-32f0c76399f2,1689620432728446081,-1.731873,-1.38092,18.537521,-0.028809,0.129395,0.977051,0.012865762409877314,0.10069094928164775,2.470541416405236,0.32853585481643677,0.010503258556127548,0.049632444977760315,0.9431279897689819
4b727e15-7be2-4d33-b379-0d284bc50678,e4e077f0-dce6-4b13-8576-32f0c76399f2,1689620432732116081,-2.094269,-1.25885,19.147873,-0.039551,0.111328,0.983887,0.012726825307907247,0.10059550209723482,2.4749550823218254,0.32645824551582336,0.01044366043061018,0.04958778992295265,0.9438521862030029
4b727e15-7be2-4d33-b379-0d284bc50678,e4e077f0-dce6-4b13-8576-32f0c76399f2,1689620432735786081,-2.342224,-1.13678,19.697189,-0.040527,0.11377,0.990723,0.012596987447758704,0.10048885994171941,2.4794955075174796,0.324319064617157,0.01037505455315113,0.0495399609208107,0.9445926547050476
4b727e15-7be2-4d33-b379-0d284bc50678,e4e077f0-dce6-4b13-8576-32f0c76399f2,1689620432739456081,-2.462387,-1.016617,19.937515,-0.040527,0.11377,0.972656,0.012475956656507057,0.10038038219376329,2.484030465330028,0.3221805989742279,0.010302400216460228,0.04949260130524635,0.9453274011611938
4b727e15-7be2-4d33-b379-0d284bc50678,e4e077f0-dce6-4b13-8576-32f0c76399f2,1689620432743126081,-2.279282,-0.955582,20.730972,-0.035156,0.114258,0.980957,0.012333326446313285,0.10028537188394626,2.488581373549684,0.3200332820415497,0.01024199090898037,0.0494481585919857,0.94605952501297
4b727e15-7be2-4d33-b379-0d284bc50678,e4e077f0-dce6-4b13-8576-32f0c76399f2,1689620432746796081,-2.6474,-0.404358,21.284103,-0.027832,0.105957,0.984375,0.012200710302596299,0.10013076619189562,2.4923115940407765,0.3182731866836548,0.01018787082284689,0.04937290772795677,0.9466575980186462
4b727e15-7be2-4d33-b379-0d284bc50678,e4e077f0-dce6-4b13-8576-32f0c76399f2,1689620432750466081,-2.52533,-0.160217,21.89064,-0.025879,0.104004,0.988769,0.01207502734103516,0.0999772831301395,2.4958817675512983,0.31658756732940674,0.010134903714060783,0.04929844290018082,0.9472271203994751
4b727e15-7be2-4d33-b379-0d284bc50678,e4e077f0-dce6-4b13-8576-32f0c76399f2,1689620432754136081,-2.6474,-0.282288,22.562027,-0.027344,0.116699,0.999023,0.011940865344356807,0.09985953354954498,2.4994286273727844,0.314911812543869,0.010092468932271004,0.04923942685127258,0.9477890133857727
4b727e15-7be2-4d33-b379-0d284bc50678,e4e077f0-dce6-4b13-8576-32f0c76399f2,1689620432893007081,1.25885,13.328552,57.291031,-0.006836,0.107422,0.993652,0.031076708236598614,0.10800856414945596,2.7598173331144364,0.1886075735092163,-0.004993218928575516,0.05593487620353699,0.9804455637931824
4b727e15-7be2-4d33-b379-0d284bc50678,e4e077f0-dce6-4b13-8576-32f0c76399f2,1689620432918007081,1.199722,13.936996,56.684494,0.007324,0.127441,1.008301,0.03151770957304323,0.10830156354886045,2.7641494076366597,0.18646736443042755,-0.005303080193698406,0.05610869452357292,0.9808433055877686
4b727e15-7be2-4d33-b379-0d284bc50678,e4e077f0-dce6-4b13-8576-32f0c76399f2,1689620432943007081,1.138687,14.364243,56.257248,-0.005371,0.128906,1.013184,0.03203919193224879,0.10859316839213783,2.7684441758522462,0.18434229493141174,-0.00565227959305048,0.05628826469182968,0.9812327027320862
4b727e15-7be2-4d33-b379-0d284bc50678,e4e077f0-dce6-4b13-8576-32f0c76399f2,1689620432968007081,1.016617,14.730453,55.524826,-0.01416,0.125977,1.009766,0.03262499607720335,0.10886513895987847,2.7726800760745016,0.18224366009235382,-0.0060339802876114845,0.05646299198269844,0.9816123247146606
4b727e15-7be2-4d33-b379-0d284bc50678,e4e077f0-dce6-4b13-8576-32f0c76399f2,1689620432993007081,0.953674,15.098572,55.459976,-0.018066,0.118652,1.005371,0.03325095952355909,0.10910803429540258,2.7769100464429015,0.18014630675315857,-0.006438633427023888,0.05662571266293526,0.9819874167442322
4b727e15-7be2-4d33-b379-0d284bc50678,e4e077f0-dce6-4b13-8576-32f0c76399f2,1689620433018578081,1.077652,15.523911,54.914474,-0.005859,0.130371,1.011719,0.033863064730619015,0.10940211811347822,2.7803803010946098,0.17842093110084534,-0.006811012513935566,0.056813452392816544,0.9822890758514404
4b727e15-7be2-4d33-b379-0d284bc50678,e4e077f0-dce6-4b13-8576-32f0c76399f2,1689620433044149081,1.321793,15.46669,54.304123,-0.004395,0.133789,1.013672,0.0344662637662577,0.10972650205869194,2.7838687688942594,0.1766858547925949,-0.007177489809691906,0.057014092803001404,0.9825884103775024
4b727e15-7be2-4d33-b379-0d284bc50678,e4e077f0-dce6-4b13-8576-32f0c76399f2,1689620433069720081,1.321793,16.073227,53.815842,-0.014648,0.117187,1.016113,0.035154611744937524,0.10998732441670434,2.7872981578137628,0.1749776154756546,-0.007590457797050476,0.05719006434082985,0.982880711555481
4b727e15-7be2-4d33-b379-0d284bc50678,e4e077f0-dce6-4b13-8576-32f0c76399f2,1689620433095291081,1.38092,16.50238,53.01857,-0.006836,0.133301,1.024414,0.035847285341215326,0.11030973137100901,2.7900453885854577,0.1736031472682953,-0.007981197908520699,0.05739814043045044,0.983109176158905
4b727e15-7be2-4d33-b379-0d284bc50678,e4e077f0-dce6-4b13-8576-32f0c76399f2,1689620433120862081,1.504898,16.744614,52.656174,-0.016113,0.139648,1.007324,0.03659511328764562,0.11067283072165282,2.7926116388010285,0.1723150759935379,-0.008390875533223152,0.0576307475566864,0.9833187460899353
4b727e15-7be2-4d33-b379-0d284bc50678,e4e077f0-dce6-4b13-8576-32f0c76399f2,1689620433146433081,1.808167,16.929626,51.923752,-0.008789,0.136719,1.008301,0.03733073662015623,0.11104707819106809,2.7950726820017198,0.17107851803302765,-0.00879114679992199,0.05786728113889694,0.9835172891616821
4b727e15-7be2-4d33-b379-0d284bc50678,e4e077f0-dce6-4b13-8576-32f0c76399f2,1689620433172004081,0.955582,17.17186,51.370621,-0.016113,0.135742,1.006836,0.03811298281985173,0.11135373285763105,2.7974597239440215,0.1698775738477707,-0.009218594059348106,0.058073971420526505,0.9837093353271484
4b727e15-7be2-4d33-b379-0d284bc50678,e4e077f0-dce6-4b13-8576-32f0c76399f2,1689620433174447081,0.711441,16.866684,51.008224,-0.019531,0.118164,0.990234,0.038886563500829155,0.11158347784900381,2.800146136845043,0.16853034496307373,-0.009657560847699642,0.058239713311195374,0.9839270114898682
4b727e15-7be2-4d33-b379-0d284bc50678,e4e077f0-dce6-4b13-8576-32f0c76399f2,1689620433176890081,0.833511,16.626358,50.088882,-0.024902,0.112305,0.995117,0.03966532479370929,0.1117977106246905,2.8028028448326947,0.16719740629196167,-0.010099981911480427,0.0583973191678524,0.9841406345367432
4b727e15-7be2-4d33-b379-0d284bc50678,e4e077f0-dce6-4b13-8576-32f0c76399f2,1689620433179333081,0.34523,16.683578,49.600601,-0.016113,0.120117,0.981445,0.040417728758021174,0.11201096807110313,2.8054128030226475,0.16588789224624634,-0.010528568178415298,0.058551423251628876,0.9843485355377197
4b727e15-7be2-4d33-b379-0d284bc50678,e4e077f0-dce6-4b13-8576-32f0c76399f2,1689620433181776081,-0.020981,16.561508,48.929214,-0.014648,0.122559,0.984863,0.041156780338323616,0.11220436360067623,2.8091525720736765,0.16402249038219452,-0.010985808447003365,0.05868742614984512,0.9846479892730713
4b727e15-7be2-4d33-b379-0d284bc50678,e4e077f0-dce6-4b13-8576-32f0c76399f2,1689620433184219081,-0.509262,16.321182,48.257828,-0.025879,0.12793,0.992676,0.04192100710568413,0.11237750511132082,2.8128383214506396,0.16218261420726776,-0.011456065811216831,0.058814290910959244,0.9849398136138916
4b727e15-7be2-4d33-b379-0d284bc50678,e4e077f0-dce6-4b13-8576-32f0c76399f2,1689620433186662081,-0.875473,16.012192,47.40715,-0.02002,0.102539,0.990234,0.04264395472420534,0.11242806050348828,2.8164629328656847,0.16037531197071075,-0.011914658360183239,0.05887630209326744,0.985226571559906
4b727e15-7be2-4d33-b379-0d284bc50678,e4e077f0-dce6-4b13-8576-32f0c76399f2,1689620433189105081,-1.180649,15.523911,46.487808,-0.024414,0.118652,0.98584,0.043352352900633814,0.11251731845588435,2.820017078307769,0.1586020290851593,-0.012361147440969944,0.05895518139004707,0.9855033755302429
4b727e15-7be2-4d33-b379-0d284bc50678,e4e077f0-dce6-4b13-8576-32f0c76399f2,1689620433191548081,-1.729965,15.340805,45.759201,-0.033203,0.116211,0.988769,0.044083606869656206,0.1125534676765257,2.8235138195982628,0.15685665607452393,-0.012821747921407223,0.0590086467564106,0.9857735633850098
4b727e15-7be2-4d33-b379-0d284bc50678,e4e077f0-dce6-4b13-8576-32f0c76399f2,1689620433193991081,-2.220154,14.610291,44.904709,-0.02832,0.121582,0.990723,0.044744006557121296,0.11257298000234219,2.8269495480477382,0.15514321625232697,-0.013247148133814335,0.059047382324934006,0.9860367178916931
4b727e15-7be2-4d33-b379-0d284bc50678,e4e077f0-dce6-4b13-8576-32f0c76399f2,1689620433196434081,-2.342224,14.183044,44.477463,-0.016113,0.115234,0.991699,0.04532675588355069,0.11255965920405354,2.828819753783289,0.1542041003704071,-0.01359075028449297,0.05907333642244339,0.9861778020858765
4b727e15-7be2-4d33-b379-0d284bc50678,e4e077f0-dce6-4b13-8576-32f0c76399f2,1689620433198877081,-3.013611,13.694763,43.928146,-0.03125,0.116699,0.983398,0.04593410286028652,0.11250443761204255,2.830613819798455,0.15330232679843903,-0.013947556726634502,0.05908045545220375,0.986312985420227
4b727e15-7be2-4d33-b379-0d284bc50678,e4e077f0-dce6-4b13-8576-32f0c76399f2,1689620433201320081,-3.377914,13.26561,43.073654,-0.033203,0.115234,0.986328,0.04652127512965902,0.11241389804180381,2.832322253226866,0.15244382619857788,-0.014294643886387348,0.05906863883137703,0.9864417910575867
4b727e15-7be2-4d33-b379-0d284bc50678,e4e077f0-dce6-4b13-8576-32f0c76399f2,1689620433204745081,-3.43895,12.777328,42.768478,-0.036621,0.111816,0.984375,0.04708634078620503,0.11230678187129593,2.835596825447134,0.15081354975700378,-0.01467832550406456,0.05903494358062744,0.9866887331008911
4b727e15-7be2-4d33-b379-0d284bc50678,e4e077f0-dce6-4b13-8576-32f0c76399f2,1689620433208170081,-3.988266,12.594223,42.215347,-0.033691,0.106445,0.994629,0.04762586954045661,0.11213597305942,2.83883328709432,0.14920346438884735,-0.015053046867251396,0.05896710976958275,0.9869319200515747
4b727e15-7be2-4d33-b379-0d284bc50678,e4e077f0-dce6-4b13-8576-32f0c76399f2,1689620433211595081,-4.720688,11.617661,41.791916,-0.022949,0.111816,0.991211,0.048054058894435994,0.1119315593193355,2.842044517713533,0.14760929346084595,-0.015374412760138512,0.05887361243367195,0.9871722459793091
4b727e15-7be2-4d33-b379-0d284bc50678,e4e077f0-dce6-4b13-8576-32f0c76399f2,1689620433215020081,-4.78363,11.375427,40.998459,-0.035156,0.120117,1.001465,0.04851416137526128,0.11174833955304811,2.845190764503914,0.14604558050632477,-0.01570778340101242,0.058792535215616226,0.9874043464660645
4b727e15-7be2-4d33-b379-0d284bc50678,e4e077f0-dce6-4b13-8576-32f0c76399f2,1689620433218445081,-5.086899,10.824203,40.384293,-0.019531,0.099121,0.984863,0.04888040005315171,0.1114701766382705,2.848298108775972,0.14450502395629883,-0.01600043848156929,0.0586572140455246,0.9876343607902527
4b727e15-7be2-4d33-b379-0d284bc50678,e4e077f0-dce6-4b13-8576-32f0c76399f2,1689620433221870081,-4.903793,10.519028,39.716721,-0.030762,0.119141,0.989746,0.04927072356823379,0.11127833599588219,2.8513491090904495,0.1429898887872696,-0.016296662390232086,0.058565929532051086,0.9878553748130798
4b727e15-7be2-4d33-b379-0d284bc50678,e4e077f0-dce6-4b13-8576-32f0c76399f2,1689620433225295081,-5.147934,9.786606,38.919449,-0.037109,0.096191,1.004395,0.04963222931304056,0.11097517614382141,2.8543383821329824,0.1415075808763504,-0.016584638506174088,0.05841737240552902,0.9880728125572205
4b727e15-7be2-4d33-b379-0d284bc50678,e4e077f0-dce6-4b13-8576-32f0c76399f2,1689620433228720081,-5.45311,9.298325,38.373947,-0.043457,0.106934,1.014648,0.049983437769083414,0.1106846664872559,2.857284632750099,0.14004634320735931,-0.016864962875843048,0.05827397480607033,0.988284707069397
4b727e15-7be2-4d33-b379-0d284bc50678,e4e077f0-dce6-4b13-8576-32f0c76399f2,1689620433232145081,-5.943298,8.750916,38.007736,-0.026855,0.104492,0.993652,0.05023647814313364,0.11035794504622896,2.8602114532376652,0.13859787583351135,-0.017098378390073776,0.05810534954071045,0.9884948134422302
4b727e15-7be2-4d33-b379-0d284bc50678,e4e077f0-dce6-4b13-8576-32f0c76399f2,1689620433235570081,-6.183624,7.896423,37.58049,-0.034668,0.10498,1.00293,0.050456467347187894,0.11001083057860264,2.8631036666358294,0.1371675282716751,-0.017315421253442764,0.057924121618270874,0.9887011647224426
4b727e15-7be2-4d33-b379-0d284bc50678,e4e077f0-dce6-4b13-8576-32f0c76399f2,1689620433238995081,-6.43158,7.225037,37.149429,-0.037598,0.100098,1.000977,0.05064091778350931,0.1096279502166209,2.86596300788679,0.1357547640800476,-0.017515935003757477,0.057722583413124084,0.9889044165611267
4b727e15-7be2-4d33-b379-0d284bc50678,e4e077f0-dce6-4b13-8576-32f0c76399f2,1689620433242420081,-6.614685,6.797791,36.359787,-0.044922,0.114258,1.006348,0.0508268074077154,0.1092811322934607,2.868759713230307,0.13437208533287048,-0.017712339758872986,0.05753907188773155,0.9891003966331482
4b727e15-7be2-4d33-b379-0d284bc50678,e4e077f0-dce6-4b13-8576-32f0c76399f2,1689620433245845081,-6.490707,6.490707,35.871506,-0.027344,0.097168,1.000488,0.05092830262550141,0.10888189745958776,2.8715259245222278,0.1330074965953827,-0.017869211733341217,0.05732386186718941,0.9892945289611816
4b727e15-7be2-4d33-b379-0d284bc50678,e4e077f0-dce6-4b13-8576-32f0c76399f2,1689620433249270081,-6.673813,6.185532,34.830093,-0.021973,0.095215,0.995605,0.050996495441822734,0.10846139088434047,2.8742158560308297,0.1316816806793213,-0.018008295446634293,0.05709630250930786,0.9894825220108032
4b727e15-7be2-4d33-b379-0d284bc50678,e4e077f0-dce6-4b13-8576-32f0c76399f2,1689620433252886081,-6.551743,5.514145,33.79631,-0.031738,0.095215,0.995117,0.05106068888381693,0.10804776747153506,2.876822200597537,0.1303969770669937,-0.018141981214284897,0.056872375309467316,0.9896630644798279
4b727e15-7be2-4d33-b379-0d284bc50678,e4e077f0-dce6-4b13-8576-32f0c76399f2,1689620433256502081,-6.4888,5.271912,32.941818,-0.024902,0.088867,1.00293,0.051086716318262844,0.10761030292748493,2.879366102132384,0.12914440035820007,-0.01825603097677231,0.05663450434803963,0.9898388385772705
4b727e15-7be2-4d33-b379-0d284bc50678,e4e077f0-dce6-4b13-8576-32f0c76399f2,1689620433260118081,-6.614685,5.393982,31.965256,-0.022949,0.092773,1.002441,0.051123564818142946,0.10717655436299595,2.8818367786563206,0.12792746722698212,-0.0183725543320179,0.0563996359705925,0.9900081157684326
4b727e15-7be2-4d33-b379-0d284bc50678,e4e077f0-dce6-4b13-8576-32f0c76399f2,1689620433263734081,-6.490707,4.415512,30.923843,-0.024902,0.101562,1.015137,0.0511010204048908,0.10677757921234012,2.884227304385396,0.126751109957695,-0.018454615026712418,0.056178752332925797,0.990170419216156
4b727e15-7be2-4d33-b379-0d284bc50678,e4e077f0-dce6-4b13-8576-32f0c76399f2,1689620433267350081,-6.248474,4.295349,30.069351,-0.02832,0.100586,0.994141,0.051094381315063005,0.10639985113413339,2.8865498910202794,0.12560738623142242,-0.018540790304541588,0.05596989393234253,0.9903264045715332
4b727e15-7be2-4d33-b379-0d284bc50678,e4e077f0-dce6-4b13-8576-32f0c76399f2,1689620433270966081,-6.063461,4.232407,29.157639,-0.029297,0.104004,1.014648,0.05109122169924498,0.10603841788914184,2.8888019777391913,0.12449803203344345,-0.01862521842122078,0.05576985329389572,0.990476131439209
4b727e15-7be2-4d33-b379-0d284bc50678,e4e077f0-dce6-4b13-8576-32f0c76399f2,1689620433274582081,-6.246567,3.377914,28.242111,-0.043457,0.109375,1.01123,0.051086060048446555,0.10568237713517714,2.8889068753837175,0.12445191293954849,-0.018648222088813782,0.055592287331819534,0.990491509437561
4b727e15-7be2-4d33-b379-0d284bc50678,e4e077f0-dce6-4b13-8576-32f0c76399f2,1689620433278198081,-5.638123,2.830505,27.204514,-0.041016,0.096191,1.007812,0.05104059131886537,0.10532083696737415,2.889010914352856,0.12440742552280426,-0.018651563674211502,0.055409498512744904,0.9905072450637817
4b727e15-7be2-4d33-b379-0d284bc50678,e4e077f0-dce6-4b13-8576-32f0c76399f2,1689620433281814081,-5.57518,2.645493,26.288986,-0.035645,0.099121,1.014648,0.0509671627823621,0.10497090693293609,2.88906288322884,0.12438929080963135,-0.018638869747519493,0.05523119866847992,0.9905197620391846
4b727e15-7be2-4d33-b379-0d284bc50678,e4e077f0-dce6-4b13-8576-32f0c76399f2,1689620433285430081,-5.512238,2.830505,25.186539,-0.04248,0.084961,1.012695,0.0509436872203695,0.10456986298930963,2.891005076928005,0.12343436479568481,-0.018706146627664566,0.05501304566860199,0.9906500577926636
4b727e15-7be2-4d33-b379-0d284bc50678,e4e077f0-dce6-4b13-8576-32f0c76399f2,1689620433289046081,-5.332947,2.586365,24.091721,-0.032715,0.095703,1.013184,0.050874162283702444,0.10422037335156879,2.8928666969907524,0.12251964956521988,-0.018744774162769318,0.054818276315927505,0.9907736778259277
4b727e15-7be2-4d33-b379-0d284bc50678,e4e077f0-dce6-4b13-8576-32f0c76399f2,1689620433292662081,-5.271912,2.159119,23.603439,-0.028809,0.097168,1.00293,0.0507644366047626,0.10388424941643531,2.8923451777768685,0.12278632074594498,-0.01869719848036766,0.05464997515082359,0.9907508492469788
4b727e15-7be2-4d33-b379-0d284bc50678,e4e077f0-dce6-4b13-8576-32f0c76399f2,1689620433296278081,-5.088806,1.853943,22.809982,-0.01416,0.07959,1.013672,0.05058128281368813,0.10348985221884341,2.8941152780390076,0.1219206154346466,-0.01867937296628952,0.05442690849304199,0.9908703565597534
4b727e15-7be2-4d33-b379-0d284bc50678,e4e077f0-dce6-4b13-8576-32f0c76399f2,1689620433299894081,-5.086899,1.791,22.138596,-0.032227,0.092285,1.006836,0.05047013761773012,0.10314421000670966,2.8958268369057514,0.12108103930950165,-0.018692247569561005,0.054232966154813766,0.9909837245941162
4b727e15-7be2-4d33-b379-0d284bc50678,e4e077f0-dce6-4b13-8576-32f0c76399f2,1689620433303510081,-4.78363,1.853943,21.039963,-0.030762,0.092773,0.998047,0.05036937195033506,0.10282387052643438,2.8974538941570263,0.12028253823518753,-0.018706105649471283,0.054052989929914474,0.9910905361175537
4b727e15-7be2-4d33-b379-0d284bc50678,e4e077f0-dce6-4b13-8576-32f0c76399f2,1689620433307126081,-4.598618,1.119614,20.124435,-0.019531,0.088867,1.008301,0.05017685111682608,0.10249629428491915,2.896527110078459,0.12075209617614746,-0.018605850636959076,0.05388776212930679,0.991044282913208
4b727e15-7be2-4d33-b379-0d284bc50678,e4e077f0-dce6-4b13-8576-32f0c76399f2,1689620433310742081,-4.173279,0.87738,19.208908,-0.036133,0.097168,1.009277,0.050037236503847664,0.10222904018231958,2.895506291924019,0.12126582860946655,-0.018525712192058563,0.05375640466809273,0.9909902215003967
4b727e15-7be2-4d33-b379-0d284bc50678,e4e077f0-dce6-4b13-8576-32f0c76399f2,1689620433314358081,-3.929138,0.87738,18.106461,-0.027344,0.090332,1.007812,0.04987410207875183,0.10195176508374908,2.8944098649290853,0.12181776762008667,-0.018432650715112686,0.05361928045749664,0.9909316897392273
4b727e15-7be2-4d33-b379-0d284bc50678,e4e077f0-dce6-4b13-8576-32f0c76399f2,1689620433318687081,-3.744125,0.574112,17.129898,-0.025879,0.070312,1.003906,0.04969165871462575,0.101611641033289,2.895737064082456,0.1211702972650528,-0.018398858606815338,0.053427502512931824,0.9910220503807068
4b727e15-7be2-4d33-b379-0d284bc50678,e4e077f0-dce6-4b13-8576-32f0c76399f2,1689620433323016081,-3.622055,0.448227,16.279221,-0.010742,0.096191,1.002441,0.04945048947341038,0.10137691376671949,2.8970044134855644,0.12055233120918274,-0.018327638506889343,0.053285013884305954,0.991106390953064
4b727e15-7be2-4d33-b379-0d284bc50678,e4e077f0-dce6-4b13-8576-32f0c76399f2,1689620433327345081,-3.318787,0.389099,15.546799,-0.03125,0.099609,1.002441,0.049289569396677016,0.10117554808300795,2.89820681204001,0.11996381729841232,-0.018292250111699104,0.05316456779837608,0.9911849498748779
4b727e15-7be2-4d33-b379-0d284bc50678,e4e077f0-dce6-4b13-8576-32f0c76399f2,1689620433331674081,-3.135681,0.022888,14.448166,-0.012695,0.089844,1.007324,0.04903900424051915,0.10094606372943407,2.899331997287576,0.11941631138324738,-0.018211955204606056,0.05302560329437256,0.9912599921226501
4b727e15-7be2-4d33-b379-0d284bc50678,e4e077f0-dce6-4b13-8576-32f0c76399f2,1689620433336003081,-3.072739,0.085831,14.017105,-0.020996,0.090332,0.984863,0.04883311561365124,0.10073063102817677,2.898235280210329,0.11996858566999435,-0.018094021826982498,0.052916496992111206,0.9912012815475464
4b727e15-7be2-4d33-b379-0d284bc50678,e4e077f0-dce6-4b13-8576-32f0c76399f2,1689620433340332081,-3.194809,-0.22316,13.105392,-0.022461,0.088379,0.994141,0.04861612495578354,0.10049211461294791,2.8971113936038706,0.12053491175174713,-0.01797141321003437,0.0527954138815403,0.9911412596702576
4b727e15-7be2-4d33-b379-0d284bc50678,e4e077f0-dce6-4b13-8576-32f0c76399f2,1689620433344661081,-3.56102,0.020981,12.06398,-0.017578,0.099609,0.995117,0.04840762202202501,0.10026493497705534,2.8959301692081403,0.12112919986248016,-0.01785093918442726,0.0526808500289917,0.9910770654678345
4b727e15-7be2-4d33-b379-0d284bc50678,e4e077f0-dce6-4b13-8576-32f0c76399f2,1689620433348990081,-3.684998,-0.038147,11.152267,-0.021484,0.100098,0.980957,0.048219792995080474,0.10003308100806442,2.894507554225529,0.12184256315231323,-0.017734795808792114,0.052567243576049805,0.9909977316856384
4b727e15-7be2-4d33-b379-0d284bc50678,e4e077f0-dce6-4b13-8576-32f0c76399f2,1689620433353319081,-4.173279,-0.099182,10.663986,-0.023438,0.092773,0.992187,0.04803722842601244,0.09973139475235787,2.8930264604875986,0.122585728764534,-0.01762426272034645,0.052419744431972504,0.9909158945083618
4b727e15-7be2-4d33-b379-0d284bc50678,e4e077f0-dce6-4b13-8576-32f0c76399f2,1689620433357648081,-4.293442,-0.22316,9.687424,-0.023438,0.095703,0.987305,0.04785454790004607,0.09943088443180856,2.891479206969982,0.12336158007383347,-0.017512088641524315,0.05227326601743698,0.9908292889595032
4b727e15-7be2-4d33-b379-0d284bc50678,e4e077f0-dce6-4b13-8576-32f0c76399f2,1689620433361977081,-4.415512,-0.34523,9.077072,-0.025391,0.089844,0.983398,0.047676228976138824,0.09909934675543608,2.8900024130369637,0.12410277873277664,-0.01740611344575882,0.052110932767391205,0.9907471537590027
4b727e15-7be2-4d33-b379-0d284bc50678,e4e077f0-dce6-4b13-8576-32f0c76399f2,1689620433366306081,-4.78363,0.022888,8.10051,-0.022461,0.088867,0.977051,0.047523835255213163,0.0987363310081574,2.888489220402381,0.1248617172241211,-0.017314281314611435,0.05193481594324112,0.9906626343727112
4b727e15-7be2-4d33-b379-0d284bc50678,e4e077f0-dce6-4b13-8576-32f0c76399f2,1689620433370635081,-5.332947,-0.404358,7.246017,-0.016602,0.087402,0.994629,0.04732064096572448,0.09831827576545085,2.886934929789272,0.1256430447101593,-0.017200026661157608,0.051728494465351105,0.9905766844749451
4b727e15-7be2-4d33-b379-0d284bc50678,e4e077f0-dce6-4b13-8576-32f0c76399f2,1689620433374964081,-5.207062,-0.099182,6.391525,-0.020508,0.099609,0.98291,0.047164808063383495,0.0979581311597921,2.8874496296929575,0.1253974735736847,-0.017159145325422287,0.051535967737436295,0.9906185269355774
4b727e15-7be2-4d33-b379-0d284bc50678,e4e077f0-dce6-4b13-8576-32f0c76399f2,1689620433379293081,-5.332947,0.205994,5.414963,-0.019531,0.09668,0.993652,0.04703434795260105,0.09757158698591895,2.8857021585136273,0.1262720376253128,-0.01707434095442295,0.05135132372379303,0.9905184507369995
4b727e15-7be2-4d33-b379-0d284bc50678,e4e077f0-dce6-4b13-8576-32f0c76399f2,1689620433383622081,-5.392075,-0.162125,4.804611,-0.027344,0.078125,0.990723,0.046911620475602094,0.0971106714761703,2.8839170618697136,0.1271660178899765,-0.016997553408145905,0.05113055929541588,0.9904168248176575
4b727e15-7be2-4d33-b379-0d284bc50678,e4e077f0-dce6-4b13-8576-32f0c76399f2,1689620433387951081,-4.964828,-0.040054,4.31633,-0.014648,0.06543,0.997559,0.0467530596976367,0.0966317983749893,2.8842750105590804,0.1269998401403427,-0.01695912703871727,0.050880368798971176,0.9904516935348511
4b727e15-7be2-4d33-b379-0d284bc50678,e4e077f0-dce6-4b13-8576-32f0c76399f2,1689620433392280081,-4.966736,-0.282288,3.583908,-0.024902,0.087891,1.01709,0.04661766042271987,0.09622945756082214,2.884573613595858,0.12686128914356232,-0.016925640404224396,0.05067005008459091,0.9904808402061462
4b727e15-7be2-4d33-b379-0d284bc50678,e4e077f0-dce6-4b13-8576-32f0c76399f2,1689620433396609081,-4.66156,-0.465393,3.156662,-0.01709,0.084961,1.01416,0.04644311772063484,0.09584032261330896,2.8848413208089085,0.1267388015985489,-0.016871068626642227,0.05046406015753746,0.990507960319519
4b727e15-7be2-4d33-b379-0d284bc50678,e4e077f0-dce6-4b13-8576-32f0c76399f2,1689620433400212081,-4.478455,-0.587463,2.790451,-0.028809,0.077637,1.013672,0.04630742281964188,0.09543757951884045,2.8850761007822654,0.12663179636001587,-0.016835730522871017,0.050254080444574356,0.9905329346656799
4b727e15-7be2-4d33-b379-0d284bc50678,e4e077f0-dce6-4b13-8576-32f0c76399f2,1689620433403815081,-4.478455,-0.465393,2.542496,-0.027832,0.087891,1.016602,0.04617912678042003,0.09507307092204478,2.883006129587237,0.1276654303073883,-0.016743838787078857,0.05008283630013466,0.9904104471206665
4b727e15-7be2-4d33-b379-0d284bc50678,e4e077f0-dce6-4b13-8576-32f0c76399f2,1689620433407418081,-4.295349,-0.770569,2.420425,-0.023926,0.08252,1.010742,0.04601550208541449,0.09470523936923599,2.8809392132156444,0.12869833409786224,-0.016635119915008545,0.04990750923752785,0.9902874231338501
4b727e15-7be2-4d33-b379-0d284bc50678,e4e077f0-dce6-4b13-8576-32f0c76399f2,1689620433411021081,-4.112244,-1.075745,2.180099,-0.035645,0.079102,1.018555,0.045874455488366946,0.09433595025594581,2.87886757951547,0.1297328770160675,-0.01653793826699257,0.049732789397239685,0.9901628494262695
4b727e15-7be2-4d33-b379-0d284bc50678,e4e077f0-dce6-4b13-8576-32f0c76399f2,1689620433414624081,-4.049301,-1.321793,1.932144,-0.039551,0.08252,1.021484,0.0457316441905335,0.09398364220810135,2.8766994711797147,0.1308148205280304,-0.01643674448132515,0.049566999077796936,0.9900305271148682
4b727e15-7be2-4d33-b379-0d284bc50678,e4e077f0-dce6-4b13-8576-32f0c76399f2,1689620433418227081,-3.927231,-1.321793,1.691818,-0.030273,0.083984,1.012695,0.04555766156511842,0.09364962446535774,2.874517053134532,0.13190419971942902,-0.0163189135491848,0.04940816015005112,0.9898958206176758
4b727e15-7be2-4d33-b379-0d284bc50678,e4e077f0-dce6-4b13-8576-32f0c76399f2,1689620433421830081,-3.377914,-1.810074,1.447678,-0.026367,0.078613,1.012207,0.04533454339585283,0.09333764283846219,2.8723327665804517,0.13299521803855896,-0.01617560163140297,0.04925676807761192,0.9897597432136536
4b727e15-7be2-4d33-b379-0d284bc50678,e4e077f0-dce6-4b13-8576-32f0c76399f2,1689620433425433081,-3.43895,-2.176285,1.386642,-0.029785,0.075684,0.999512,0.04510032222916266,0.09301530247735025,2.870500803996422,0.13391214609146118,-0.016036495566368103,0.049096427857875824,0.989646315574646
4b727e15-7be2-4d33-b379-0d284bc50678,e4e077f0-dce6-4b13-8576-32f0c76399f2,1689620433429036081,-3.316879,-1.993179,1.447678,-0.048828,0.064941,1.001465,0.04495255847010663,0.09266195772672317,2.868752816982803,0.1347857117652893,-0.015944648534059525,0.048925694078207016,0.9895376563072205
4b727e15-7be2-4d33-b379-0d284bc50678,e4e077f0-dce6-4b13-8576-32f0c76399f2,1689620433432639081,-3.684998,-2.235413,1.142502,-0.023438,0.077637,1.003906,0.04469208181873944,0.09232877592617773,2.8670235032329336,0.13565237820148468,-0.015796419233083725,0.04875701293349266,0.9894299507141113
4b727e15-7be2-4d33-b379-0d284bc50678,e4e077f0-dce6-4b13-8576-32f0c76399f2,1689620433436242081,-3.623962,-2.723694,1.447678,-0.030762,0.070801,1.010254,0.04442032765176825,0.09197449788134625,2.8651103536659748,0.13661041855812073,-0.015639908611774445,0.04857834428548813,0.9893094301223755
4b727e15-7be2-4d33-b379-0d284bc50678,e4e077f0-dce6-4b13-8576-32f0c76399f2,1689620433439845081,-4.173279,-2.784729,1.386642,-0.026367,0.078125,1.003418,0.044129860137080416,0.09160985559480202,2.863169910548446,0.13758240640163422,-0.015474552288651466,0.04839321970939636,0.9891863465309143
4b727e15-7be2-4d33-b379-0d284bc50678,e4e077f0-dce6-4b13-8576-32f0c76399f2,1689620433443448081,-4.049301,-2.847672,1.386642,-0.032227,0.076172,1.0,0.04385881718913071,0.09124945985479266,2.8612368048227474,0.1385500580072403,-0.015319057740271091,0.04821120202541351,0.9890626072883606
4b727e15-7be2-4d33-b379-0d284bc50678,e4e077f0-dce6-4b13-8576-32f0c76399f2,1689620433447051081,-4.295349,-2.906799,1.447678,-0.036621,0.088379,0.998535,0.043600639056752134,0.09091871498293462,2.859433030746375,0.13945287466049194,-0.0151712941005826,0.04804350063204765,0.9889461398124695
4b727e15-7be2-4d33-b379-0d284bc50678,e4e077f0-dce6-4b13-8576-32f0c76399f2,1689620433450654081,-4.478455,-2.723694,1.325607,-0.038574,0.068359,0.989746,0.043366948653143146,0.09050250308510518,2.8576591086482805,0.1403413861989975,-0.015042747370898724,0.047834817320108414,0.9888325333595276
4b727e15-7be2-4d33-b379-0d284bc50678,e4e077f0-dce6-4b13-8576-32f0c76399f2,1689620433454257081,-4.478455,-2.418518,1.325607,-0.031738,0.072754,0.993164,0.043131232219731315,0.09010264681336992,2.855909301628705,0.1412176489830017,-0.01491298247128725,0.04763370007276535,0.9887194633483887
4b727e15-7be2-4d33-b379-0d284bc50678,e4e077f0-dce6-4b13-8576-32f0c76399f2,1689620433457860081,-4.844666,-2.723694,0.959396,-0.039062,0.067871,1.007324,0.04290074025889401,0.08965291008779167,2.854148861817774,0.14209958910942078,-0.014789499342441559,0.04740818962454796,0.988605797290802
4b727e15-7be2-4d33-b379-0d284bc50678,e4e077f0-dce6-4b13-8576-32f0c76399f2,1689620433461463081,-4.720688,-2.664566,0.837326,-0.027832,0.072266,1.007324,0.042633960597961366,0.08923047387262063,2.8521636340681034,0.14309296011924744,-0.014641203917562962,0.047195035964250565,0.9884749054908752
4b727e15-7be2-4d33-b379-0d284bc50678,e4e077f0-dce6-4b13-8576-32f0c76399f2,1689620433465066081,-4.598618,-2.11525,0.898361,-0.032227,0.068848,1.00293,0.04242682850815871,0.08880743925319959,2.8501525081930805,0.14409755170345306,-0.014522254467010498,0.046985819935798645,0.9883406758308411
4b727e15-7be2-4d33-b379-0d284bc50678,e4e077f0-dce6-4b13-8576-32f0c76399f2,1689620433468669081,-4.478455,-2.052307,0.772476,-0.035156,0.058105,1.005859,0.04223664256606505,0.08835328067539815,2.848140595201041,0.1451023817062378,-0.014414381235837936,0.046762268990278244,0.9882058501243591
4b727e15-7be2-4d33-b379-0d284bc50678,e4e077f0-dce6-4b13-8576-32f0c76399f2,1689620433472272081,-4.356384,-2.052307,0.471115,-0.025391,0.087402,1.000977,0.04201299021054343,0.08802131306136216,2.84603557092523,0.14615215361118317,-0.014279226772487164,0.04659711569547653,0.9880608916282654
4b727e15-7be2-4d33-b379-0d284bc50678,e4e077f0-dce6-4b13-8576-32f0c76399f2,1689620433475875081,-4.232407,-1.932144,0.41008,-0.021973,0.069336,1.013672,0.041784852183713174,0.0876273630739089,2.8439289474450153,0.1472034752368927,-0.01414679829031229,0.046400800347328186,0.9879159331321716
4b727e15-7be2-4d33-b379-0d284bc50678,e4e077f0-dce6-4b13-8576-32f0c76399f2,1689620433607979081,2.786636,0.085831,-2.458572,-0.04834,0.100586,0.986328,0.041109208231107676,0.0844298358101811,2.754400083947314,0.19132603704929352,-0.012033659964799881,0.04535591974854469,0.9804041981697083
4b727e15-7be2-4d33-b379-0d284bc50678,e4e077f0-dce6-4b13-8576-32f0c76399f2,1689620433645683081,2.601624,0.022888,-2.523422,-0.038086,0.095703,0.999023,0.04111621724611591,0.08465997787004594,2.7532173603920937,0.19190236926078796,-0.011987988837063313,0.04547646641731262,0.9802864789962769
4b727e15-7be2-4d33-b379-0d284bc50678,e4e077f0-dce6-4b13-8576-32f0c76399f2,1689620433683387081,2.786636,0.448227,-1.970291,-0.044922,0.091797,0.994629,0.041178626012347896,0.08489138418984844,2.7520854249359337,0.19245244562625885,-0.011970369145274162,0.045602619647979736,0.9801729917526245
4b727e15-7be2-4d33-b379-0d284bc50678,e4e077f0-dce6-4b13-8576-32f0c76399f2,1689620433703454081,2.542496,0.265121,-1.787186,-0.061523,0.092285,0.998047,0.04128829831886214,0.08510451681615326,2.751312756174018,0.1928255707025528,-0.011985762976109982,0.045722223818302155,0.9800938963890076
4b727e15-7be2-4d33-b379-0d284bc50678,e4e077f0-dce6-4b13-8576-32f0c76399f2,1689620433723521081,2.481461,0.085831,-1.852036,-0.049316,0.092285,0.998047,0.041337730467830354,0.08531230096716716,2.7506159932806256,0.19316290318965912,-0.011973812244832516,0.04583295062184334,0.9800224900245667
4b727e15-7be2-4d33-b379-0d284bc50678,e4e077f0-dce6-4b13-8576-32f0c76399f2,1689620433743588081,2.603531,0.448227,-1.787186,-0.057617,0.10498,0.995605,0.041446259970136276,0.08557712540878484,2.74994182217244,0.19348697364330292,-0.011985685676336288,0.04597719758749008,0.9799516201019287
4b727e15-7be2-4d33-b379-0d284bc50678,e4e077f0-dce6-4b13-8576-32f0c76399f2,1689620433763655081,2.725601,0.265121,-1.298904,-0.057617,0.110352,0.994141,0.04153770913921583,0.08587237643605153,2.7488801953485655,0.19400078058242798,-0.01197718270123005,0.04613702371716499,0.9798426032066345
4b727e15-7be2-4d33-b379-0d284bc50678,e4e077f0-dce6-4b13-8576-32f0c76399f2,1689620433783722081,2.357483,0.328064,-1.298904,-0.056641,0.102539,0.995117,0.04162943547179508,0.08610919143228804,2.7477437335998944,0.1945519894361496,-0.011972658336162567,0.046268709003925323,0.9797272086143494
4b727e15-7be2-4d33-b379-0d284bc50678,e4e077f0-dce6-4b13-8576-32f0c76399f2,1689620433803789081,2.540588,0.205994,-1.363754,-0.053711,0.096191,0.988769,0.04170195384355475,0.08633690896768834,2.746596935121204,0.19510877132415771,-0.011959227733314037,0.046394139528274536,0.9796106815338135
4b727e15-7be2-4d33-b379-0d284bc50678,e4e077f0-dce6-4b13-8576-32f0c76399f2,1689620433823856081,2.235413,0.022888,-1.180649,-0.043945,0.085938,0.98291,0.04172306179524811,0.08650458337348108,2.7456298642287265,0.19557951390743256,-0.011930583976209164,0.046484071761369705,0.9795128703117371
4b727e15-7be2-4d33-b379-0d284bc50678,e4e077f0-dce6-4b13-8576-32f0c76399f2,1689620433843923081,2.357483,0.389099,-0.932693,-0.039551,0.103516,1.00293,0.04175023860914863,0.08674152863429532,2.744722563872987,0.19601978361606598,-0.0118993716314435,0.04660813510417938,0.9794193506240845
4b727e15-7be2-4d33-b379-0d284bc50678,e4e077f0-dce6-4b13-8576-32f0c76399f2,1689620433846670081,2.540588,0.205994,-1.058578,-0.04834,0.103516,0.996094,0.04179884406369054,0.08699305020729829,2.74381765188132,0.1964581161737442,-0.011877154931426048,0.04674140363931656,0.9793254733085632
4b727e15-7be2-4d33-b379-0d284bc50678,e4e077f0-dce6-4b13-8576-32f0c76399f2,1689620433849417081,2.235413,0.511169,-0.993729,-0.051758,0.09082,0.984863,0.04188462411401658,0.08717655459244596,2.7426777144437247,0.19701159000396729,-0.011874270625412464,0.0468464270234108,0.979209303855896
4b727e15-7be2-4d33-b379-0d284bc50678,e4e077f0-dce6-4b13-8576-32f0c76399f2,1689620433852164081,2.176285,0.326157,-0.810623,-0.061035,0.104004,0.991211,0.04198925834547979,0.08740282003315308,2.741509818118742,0.1975776106119156,-0.011875578202307224,0.04697441682219505,0.979089081287384
4b727e15-7be2-4d33-b379-0d284bc50678,e4e077f0-dce6-4b13-8576-32f0c76399f2,1689620433854911081,2.054214,0.265121,-1.058578,-0.053223,0.10791,0.999023,0.04205958848124903,0.08763048326908271,2.7403278845050343,0.19815120100975037,-0.011859478428959846,0.04709979146718979,0.9789673089981079
4b727e15-7be2-4d33-b379-0d284bc50678,e4e077f0-dce6-4b13-8576-32f0c76399f2,1689620433857658081,2.176285,0.265121,-0.993729,-0.045898,0.106934,0.985352,0.04210364936210425,0.08786769043508956,2.739161966431162,0.19871734082698822,-0.011829801835119724,0.047227125614881516,0.9788467884063721
4b727e15-7be2-4d33-b379-0d284bc50678,e4e077f0-dce6-4b13-8576-32f0c76399f2,1689620433860405081,1.932144,0.265121,-0.627518,-0.047363,0.097656,0.998047,0.04214867010054769,0.08804739767352572,2.738054752845214,0.19925549626350403,-0.011807620525360107,0.04732606187462807,0.9787328839302063
4b727e15-7be2-4d33-b379-0d284bc50678,e4e077f0-dce6-4b13-8576-32f0c76399f2,1689620433863152081,2.23732,0.265121,-0.627518,-0.036621,0.101074,0.990234,0.04215402061885391,0.08826519190021877,2.7369648033724725,0.199785515666008,-0.01176249049603939,0.04743955284357071,0.9786198735237122
4b727e15-7be2-4d33-b379-0d284bc50678,e4e077f0-dce6-4b13-8576-32f0c76399f2,1689620433865899081,1.993179,0.814438,-0.875473,-0.055176,0.109375,0.994141,0.042272172966522074,0.08849274654709893,2.735862511695909,0.20031867921352386,-0.01177114900201559,0.0475691519677639,0.978504478931427
4b727e15-7be2-4d33-b379-0d284bc50678,e4e077f0-dce6-4b13-8576-32f0c76399f2,1689620433868646081,2.178192,0.572205,-1.115799,-0.05127,0.108398,0.98291,0.04236024114000614,0.08873243124691825,2.735119994654344,0.20067629218101501,-0.01177230291068554,0.047699566930532455,0.9784248471260071
4b727e15-7be2-4d33-b379-0d284bc50678,e4e077f0-dce6-4b13-8576-32f0c76399f2,1689620433871393081,2.178192,0.694275,-0.993729,-0.051758,0.101562,0.983398,0.04245810102639254,0.0889457666991565,2.734468153143575,0.20098966360092163,-0.011782990768551826,0.04781755432486534,0.9783546328544617
4b727e15-7be2-4d33-b379-0d284bc50678,e4e077f0-dce6-4b13-8576-32f0c76399f2,1689620433874140081,2.23732,0.448227,-1.115799,-0.049316,0.092285,0.987305,0.04252813242059633,0.08912623965637963,2.733829443201463,0.20129773020744324,-0.011783643625676632,0.047916606068611145,0.9782864451408386
4b727e15-7be2-4d33-b379-0d284bc50678,e4e077f0-dce6-4b13-8576-32f0c76399f2,1689620433877559081,1.810074,0.574112,-0.993729,-0.047852,0.116211,0.98291,0.04260139035682536,0.08936580666629179,2.733085851874081,0.20165610313415527,-0.011777280829846859,0.04804549738764763,0.9782063961029053
4b727e15-7be2-4d33-b379-0d284bc50678,e4e077f0-dce6-4b13-8576-32f0c76399f2,1689620433880978081,1.688004,0.509262,-1.237869,-0.060547,0.10498,0.986328,0.0427190531698151,0.08955080839111036,2.732302588102174,0.20203359425067902,-0.011797142215073109,0.048152435570955276,0.9781229496002197
4b727e15-7be2-4d33-b379-0d284bc50678,e4e077f0-dce6-4b13-8576-32f0c76399f2,1689620433884397081,1.688004,0.509262,-0.993729,-0.061035,0.123047,0.976562,0.04283802103147244,0.08980737195379689,2.7315400306432656,0.20239979028701782,-0.011810756288468838,0.04829438403248787,0.9780400991439819
4b727e15-7be2-4d33-b379-0d284bc50678,e4e077f0-dce6-4b13-8576-32f0c76399f2,1689620433887816081,1.441956,0.572205,-1.180649,-0.047852,0.111816,0.978516,0.04291203732620074,0.0900010665913099,2.730795886081982,0.20275896787643433,-0.011809160932898521,0.04840095341205597,0.977960467338562
4b727e15-7be2-4d33-b379-0d284bc50678,e4e077f0-dce6-4b13-8576-32f0c76399f2,1689620433891235081,1.441956,0.389099,-0.932693,-0.055176,0.108887,0.980957,0.04299772350489576,0.09018285094624155,2.730079145399287,0.20310461521148682,-0.01181507296860218,0.04850273206830025,0.9778835773468018
4b727e15-7be2-4d33-b379-0d284bc50678,e4e077f0-dce6-4b13-8576-32f0c76399f2,1689620433894654081,1.138687,0.326157,-1.180649,-0.052734,0.112305,0.988281,0.04306960718299122,0.09035053821243509,2.729353872241792,0.20345492660999298,-0.01181541383266449,0.048596274107694626,0.9778061509132385
4b727e15-7be2-4d33-b379-0d284bc50678,e4e077f0-dce6-4b13-8576-32f0c76399f2,1689620433898073081,0.833511,0.204086,-1.180649,-0.029785,0.10791,0.991699,0.04304379218557466,0.09047786617209246,2.728478194691473,0.20388172566890717,-0.01176841463893652,0.04866103082895279,0.9777145981788635
4b727e15-7be2-4d33-b379-0d284bc50678,e4e077f0-dce6-4b13-8576-32f0c76399f2,1689620433901492081,0.528336,0.631332,-1.48201,-0.047363,0.104004,0.995117,0.0431188475174095,0.09056404870722091,2.7275494676404417,0.20433259010314941,-0.011773614212870598,0.04871626943349838,0.977617621421814
4b727e15-7be2-4d33-b379-0d284bc50678,e4e077f0-dce6-4b13-8576-32f0c76399f2,1689620433904911081,0.650406,0.265121,-1.298904,-0.047363,0.10498,1.001465,0.04316378557536327,0.09066110641582083,2.726636503788283,0.20477625727653503,-0.011763310991227627,0.04877365753054619,0.977522075176239
4b727e15-7be2-4d33-b379-0d284bc50678,e4e077f0-dce6-4b13-8576-32f0c76399f2,1689620433908330081,0.282288,0.572205,-1.058578,-0.053711,0.102539,0.989746,0.043205415940716925,0.09070798293347808,2.7258287351939994,0.20516932010650635,-0.011759101413190365,0.04880557581782341,0.9774380922317505
4b727e15-7be2-4d33-b379-0d284bc50678,e4e077f0-dce6-4b13-8576-32f0c76399f2,1689620433911749081,0.284195,0.631332,-1.115799,-0.046387,0.105469,1.018555,0.043214329751913486,0.09075599060758004,2.725107072323135,0.20552104711532593,-0.011740867048501968,0.0488341823220253,0.9773629903793335
4b727e15-7be2-4d33-b379-0d284bc50678,e4e077f0-dce6-4b13-8576-32f0c76399f2,1689620433915168081,0.650406,0.448227,-1.058578,-0.045898,0.098633,0.983398,0.043227133389938006,0.09079008619798451,2.724407430587826,0.2058621048927307,-0.011726496741175652,0.048856258392333984,0.9772902727127075
4b727e15-7be2-4d33-b379-0d284bc50678,e4e077f0-dce6-4b13-8576-32f0c76399f2,1689620433918587081,0.160217,0.87738,-1.363754,-0.053711,0.11084,0.993652,0.04334341142572927,0.09087393342814694,2.723612283703984,0.2062465101480484,-0.011755158193409443,0.0489138588309288,0.9772059917449951
4b727e15-7be2-4d33-b379-0d284bc50678,e4e077f0-dce6-4b13-8576-32f0c76399f2,1689620433922006081,-0.083923,0.694275,-1.420975,-0.047852,0.100586,0.984375,0.043425016040632564,0.0909035423618256,2.7228286991672292,0.20662690699100494,-0.011772774159908295,0.04894135147333145,0.977124035358429
4b727e15-7be2-4d33-b379-0d284bc50678,e4e077f0-dce6-4b13-8576-32f0c76399f2,1689620433926341081,0.225067,0.694275,-0.993729,-0.04541,0.098633,0.983887,0.04343510111445133,0.09093692392937834,2.722161666885136,0.2069520205259323,-0.011757892556488514,0.04896261915564537,0.9770543575286865
4b727e15-7be2-4d33-b379-0d284bc50678,e4e077f0-dce6-4b13-8576-32f0c76399f2,1689620433930676081,0.225067,0.694275,-1.180649,-0.054199,0.097656,0.996094,0.043476498945002884,0.09096219249697651,2.721498761579045,0.2072744518518448,-0.011759243905544281,0.0489831417798996,0.976984977722168
4b727e15-7be2-4d33-b379-0d284bc50678,e4e077f0-dce6-4b13-8576-32f0c76399f2,1689620433935011081,-0.082016,0.265121,-1.420975,-0.048828,0.103027,1.001465,0.04352628294494379,0.09099470321977288,2.7206373246613267,0.20769351720809937,-0.011759054847061634,0.04900924488902092,0.9768946766853333
4b727e15-7be2-4d33-b379-0d284bc50678,e4e077f0-dce6-4b13-8576-32f0c76399f2,1689620433939346081,0.099182,0.205994,-1.180649,-0.0625,0.105469,1.000977,0.04359806775901487,0.0910473540706152,2.7198661581533,0.2080676108598709,-0.01176968589425087,0.04904694855213165,0.976813018321991
4b727e15-7be2-4d33-b379-0d284bc50678,e4e077f0-dce6-4b13-8576-32f0c76399f2,1689620433943681081,0.099182,0.572205,-1.48201,-0.041504,0.113281,0.986328,0.04364560606217764,0.09113709707256516,2.718993524336782,0.2084912359714508,-0.011762060225009918,0.0491008423268795,0.9767200946807861
4b727e15-7be2-4d33-b379-0d284bc50678,e4e077f0-dce6-4b13-8576-32f0c76399f2,1689620433948016081,0.404358,0.144958,-1.298904,-0.057129,0.106445,0.988769,0.04369853794375715,0.09119721852653986,2.718732434256187,0.20861651003360748,-0.01177517045289278,0.04913724586367607,0.9766913652420044
4b727e15-7be2-4d33-b379-0d284bc50678,e4e077f0-dce6-4b13-8576-32f0c76399f2,1689620433952351081,0.34523,0.085831,-1.237869,-0.040527,0.106445,1.007324,0.04368517827702702,0.09125092930373144,2.718580271464372,0.2086903154850006,-0.011759251356124878,0.04916296526789665,0.976674497127533
4b727e15-7be2-4d33-b379-0d284bc50678,e4e077f0-dce6-4b13-8576-32f0c76399f2,1689620433956686081,0.404358,0.205994,-1.180649,-0.044434,0.112793,1.00293,0.043687410412738756,0.09132985289777383,2.718448602152062,0.20875334739685059,-0.011748786084353924,0.04920249804854393,0.9766591191291809
4b727e15-7be2-4d33-b379-0d284bc50678,e4e077f0-dce6-4b13-8576-32f0c76399f2,1689620433961021081,0.284195,0.143051,-1.237869,-0.049805,0.099121,0.999512,0.043710632706355314,0.09135798810489179,2.717847614611341,0.20904581248760223,-0.011742371134459972,0.0492221862077713,0.9765956401824951
4b727e15-7be2-4d33-b379-0d284bc50678,e4e077f0-dce6-4b13-8576-32f0c76399f2,1689620433965356081,0.282288,0.083923,-1.115799,-0.052246,0.100098,0.994141,0.04374391064562128,0.09139153066224784,2.7171569282033157,0.20938171446323395,-0.011738079600036144,0.04924609139561653,0.9765225648880005
4b727e15-7be2-4d33-b379-0d284bc50678,e4e077f0-dce6-4b13-8576-32f0c76399f2,1689620433969691081,0.528336,0.020981,-0.932693,-0.047852,0.095703,0.991211,0.043760843564330326,0.09140950721772431,2.716455472103095,0.20972350239753723,-0.011727170087397099,0.04926075413823128,0.9764485955238342
4b727e15-7be2-4d33-b379-0d284bc50678,e4e077f0-dce6-4b13-8576-32f0c76399f2,1689620433974026081,0.404358,0.022888,-0.875473,-0.05957,0.098145,1.000977,0.043820613749944504,0.09143302324165345,2.7157531360841882,0.21006454527378082,-0.011736558750271797,0.04928262159228325,0.976374089717865
4b727e15-7be2-4d33-b379-0d284bc50678,e4e077f0-dce6-4b13-8576-32f0c76399f2,1689620433978361081,0.225067,0.083923,-1.058578,-0.055176,0.114258,0.999023,0.04386378421743065,0.09151793166282401,2.715525005584575,0.21017353236675262,-0.011743005365133286,0.04932992905378342,0.9763481616973877
4b727e15-7be2-4d33-b379-0d284bc50678,e4e077f0-dce6-4b13-8576-32f0c76399f2,1689620433982696081,-0.083923,-0.282288,-0.993729,-0.048828,0.090332,0.987793,0.04388455195467924,0.09151634467061093,2.7153952387758746,0.21023640036582947,-0.011750107631087303,0.04933210089802742,0.9763343930244446
4b727e15-7be2-4d33-b379-0d284bc50678,e4e077f0-dce6-4b13-8576-32f0c76399f2,1689620433987031081,-0.204086,-0.22316,-0.993729,-0.049316,0.105957,0.985352,0.04390752800117977,0.09157444147076069,2.7152855356533308,0.21028847992420197,-0.01175245363265276,0.04936350882053375,0.9763215780258179
4b727e15-7be2-4d33-b379-0d284bc50678,e4e077f0-dce6-4b13-8576-32f0c76399f2,1689620433990299081,0.34523,-0.040054,-0.993729,-0.04834,0.095703,0.989746,0.0439259978189656,0.09159213317246134,2.71457015496547,0.2106369584798813,-0.011741929687559605,0.04937828704714775,0.9762458205223083
4b727e15-7be2-4d33-b379-0d284bc50678,e4e077f0-dce6-4b13-8576-32f0c76399f2,1689620433993567081,0.282288,-0.282288,-1.363754,-0.043457,0.10791,1.004395,0.04391146604051577,0.0916674920545281,2.7136379011602987,0.21109117567539215,-0.011703791096806526,0.04941898584365845,0.9761461019515991
4b727e15-7be2-4d33-b379-0d284bc50678,e4e077f0-dce6-4b13-8576-32f0c76399f2,1689620433996835081,0.041962,-0.587463,-1.298904,-0.056641,0.104492,0.997559,0.043924601831289226,0.09171374242333064,2.712690960379054,0.21155227720737457,-0.011681866832077503,0.04944847151637077,0.9760450720787048
4b727e15-7be2-4d33-b379-0d284bc50678,e4e077f0-dce6-4b13-8576-32f0c76399f2,1689620434000103081,-0.020981,-0.162125,-0.932693,-0.057617,0.10791,0.998047,0.04397685979679654,0.09177388288435417,2.7119160555176705,0.21192820370197296,-0.011681774631142616,0.04948786646127701,0.9759615063667297
4b727e15-7be2-4d33-b379-0d284bc50678,e4e077f0-dce6-4b13-8576-32f0c76399f2,1689620434003371081,0.099182,-0.160217,-1.115799,-0.055176,0.111816,0.996094,0.04401991073709214,0.09184933320275285,2.7111627642602283,0.21229353547096252,-0.011676057241857052,0.04953363165259361,0.9758798480033875
4b727e15-7be2-4d33-b379-0d284bc50678,e4e077f0-dce6-4b13-8576-32f0c76399f2,1689620434006639081,-0.204086,-0.34523,-1.115799,-0.04541,0.108398,1.002441,0.044024645855477926,0.09190956984851605,2.710423138054401,0.21265335381031036,-0.01165358442813158,0.049567826092243195,0.9758000373840332
4b727e15-7be2-4d33-b379-0d284bc50678,e4e077f0-dce6-4b13-8576-32f0c76399f2,1689620434009907081,-0.387192,-0.22316,-0.810623,-0.041504,0.094238,1.008301,0.044013623272259994,0.0919141222377179,2.7100720754876915,0.21282483637332916,-0.011639016680419445,0.04957091808319092,0.975762665271759
4b727e15-7be2-4d33-b379-0d284bc50678,e4e077f0-dce6-4b13-8576-32f0c76399f2,1689620434013175081,-0.265121,-0.162125,-0.627518,-0.052246,0.099121,1.004883,0.0440439495789269,0.09193817513088141,2.709797460211274,0.21295768022537231,-0.011644423007965088,0.04958747327327728,0.9757328033447266
4b727e15-7be2-4d33-b379-0d284bc50678,e4e077f0-dce6-4b13-8576-32f0c76399f2,1689620434016443081,-0.692368,0.143051,-0.932693,-0.055664,0.10498,1.004395,0.04408722322243832,0.09198431770474066,2.709539927724264,0.21308152377605438,-0.011654186993837357,0.04961608350276947,0.9757041931152344
4b727e15-7be2-4d33-b379-0d284bc50678,e4e077f0-dce6-4b13-8576-32f0c76399f2,1689620434019711081,-0.509262,0.326157,-1.058578,-0.06543,0.106445,0.996094,0.04416883042743636,0.09203851223104777,2.709120370013199,0.21328333020210266,-0.011677753180265427,0.04965365678071976,0.9756578803062439
4b727e15-7be2-4d33-b379-0d284bc50678,e4e077f0-dce6-4b13-8576-32f0c76399f2,1689620434022979081,-0.511169,0.205994,-1.058578,-0.041992,0.105469,0.993164,0.044161574674809696,0.09209025875718344,2.7086805127764926,0.21349726617336273,-0.011657718569040298,0.0496806800365448,0.9756099581718445
4b727e15-7be2-4d33-b379-0d284bc50678,e4e077f0-dce6-4b13-8576-32f0c76399f2,1689620434026247081,-0.205994,0.511169,-1.058578,-0.053223,0.08252,0.997559,0.044196323818447264,0.09205352151363111,2.7082345642654646,0.21371451020240784,-0.011667553335428238,0.04966907948255539,0.9755628705024719
4b727e15-7be2-4d33-b379-0d284bc50678,e4e077f0-dce6-4b13-8576-32f0c76399f2,1689620434029515081,-0.572205,0.63324,-1.058578,-0.059082,0.071777,1.00293,0.04425227246106928,0.09197449107316681,2.7077896490198956,0.2139313817024231,-0.01169232465326786,0.049639128148555756,0.9755165576934814
4b727e15-7be2-4d33-b379-0d284bc50678,e4e077f0-dce6-4b13-8576-32f0c76399f2,1689620434032783081,-0.694275,0.75531,-1.115799,-0.047852,0.097168,0.993164,0.044331344355627515,0.09193901186091821,2.7075477726541517,0.21404795348644257,-0.011728720739483833,0.04963170737028122,0.975490927696228
4b727e15-7be2-4d33-b379-0d284bc50678,e4e077f0-dce6-4b13-8576-32f0c76399f2,1689620434036051081,-0.631332,0.814438,-1.180649,-0.041992,0.101562,1.000488,0.04439183953937198,0.09192193297193785,2.7073614213509543,0.21413761377334595,-0.011755446903407574,0.04963095113635063,0.9754709601402283
4b727e15-7be2-4d33-b379-0d284bc50678,e4e077f0-dce6-4b13-8576-32f0c76399f2,1689620434039319081,-0.87738,0.87738,-1.180649,-0.035645,0.086914,1.006348,0.04443141849592275,0.09182953886037962,2.7071912939067286,0.2142210602760315,-0.011780519969761372,0.049591146409511566,0.9754543900489807
4b727e15-7be2-4d33-b379-0d284bc50678,e4e077f0-dce6-4b13-8576-32f0c76399f2,1689620434042587081,-0.999451,0.87738,-0.993729,-0.054199,0.089844,0.995605,0.044541891981712815,0.09174324196470857,2.7066238658880137,0.2144964337348938,-0.011829664930701256,0.04956426844000816,0.975394606590271
4b727e15-7be2-4d33-b379-0d284bc50678,e4e077f0-dce6-4b13-8576-32f0c76399f2,1689620434045855081,-0.936508,0.997543,-1.298904,-0.047363,0.098633,1.009277,0.04463499971707944,0.09168936876464201,2.70595917656805,0.21481913328170776,-0.011864437721669674,0.049551937729120255,0.9753237962722778
4b727e15-7be2-4d33-b379-0d284bc50678,e4e077f0-dce6-4b13-8576-32f0c76399f2,1689620434049123081,-0.87738,0.999451,-1.180649,-0.040039,0.088379,1.008789,0.04469916373094724,0.09160236679950272,2.705295881824717,0.2151423692703247,-0.01188873965293169,0.04952036589384079,0.9752538800239563
4b727e15-7be2-4d33-b379-0d284bc50678,e4e077f0-dce6-4b13-8576-32f0c76399f2,1689620434052391081,-1.243591,0.63324,-1.115799,-0.04248,0.096191,1.008789,0.044744173962638065,0.0915176897485964,2.704703432063335,0.21543148159980774,-0.01190522313117981,0.049487464129924774,0.9751915335655212
4b727e15-7be2-4d33-b379-0d284bc50678,e4e077f0-dce6-4b13-8576-32f0c76399f2,1689620434055505081,-1.243591,0.999451,-1.726151,-0.051758,0.095703,0.983398,0.044860405997687175,0.09143806513766356,2.7040791153277084,0.21573427319526672,-0.01195511408150196,0.049464911222457886,0.9751251339912415
4b727e15-7be2-4d33-b379-0d284bc50678,e4e077f0-dce6-4b13-8576-32f0c76399f2,1689620434058619081,-1.243591,0.938416,-1.180649,-0.05127,0.092773,1.006348,0.04496208547036454,0.09134153969481222,2.7035053146565047,0.21601305902004242,-0.01200101152062416,0.049432285130023956,0.9750644564628601
4b727e15-7be2-4d33-b379-0d284bc50678,e4e077f0-dce6-4b13-8576-32f0c76399f2,1689620434061733081,-1.607895,1.119614,-1.54686,-0.044434,0.098633,0.995605,0.045055372458640615,0.09124256608669075,2.702865018894316,0.21632447838783264,-0.012041470035910606,0.04939798638224602,0.9749966859817505
4b727e15-7be2-4d33-b379-0d284bc50678,e4e077f0-dce6-4b13-8576-32f0c76399f2,1689620434064847081,-1.548767,0.75531,-1.420975,-0.044922,0.099609,1.0,0.04512101638778931,0.09115099441507082,2.7022302923922736,0.21663373708724976,-0.01206780131906271,0.049364298582077026,0.9749293923377991
4b727e15-7be2-4d33-b379-0d284bc50678,e4e077f0-dce6-4b13-8576-32f0c76399f2,1689620434067961081,-1.487732,0.694275,-1.48201,-0.047363,0.096191,0.995605,0.045192272818737035,0.0910527343393873,2.701594124852202,0.2169436514377594,-0.012097585946321487,0.04932799190282822,0.9748619198799133
4b727e15-7be2-4d33-b379-0d284bc50678,e4e077f0-dce6-4b13-8576-32f0c76399f2,1689620434071075081,-1.302719,0.509262,-1.852036,-0.054199,0.10498,0.995605,0.04527789084331288,0.09100052036107838,2.7009336849116474,0.21726427972316742,-0.01212875172495842,0.04931584745645523,0.9747907519340515
4b727e15-7be2-4d33-b379-0d284bc50678,e4e077f0-dce6-4b13-8576-32f0c76399f2,1689620434074189081,-1.670837,0.511169,-1.787186,-0.041504,0.083496,0.999023,0.04531388803689541,0.0908390530252325,2.7002900304491906,0.2175796777009964,-0.01214815303683281,0.04924500733613968,0.974723756313324
4b727e15-7be2-4d33-b379-0d284bc50678,e4e077f0-dce6-4b13-8576-32f0c76399f2,1689620434077303081,-1.66893,0.448227,-1.909256,-0.052246,0.10498,1.003418,0.04538591532708494,0.09075720616359143,2.6996398913752087,0.21789605915546417,-0.012176243588328362,0.04921693354845047,0.9746541380882263
4b727e15-7be2-4d33-b379-0d284bc50678,e4e077f0-dce6-4b13-8576-32f0c76399f2,1689620434080417081,-1.302719,0.814438,-2.153397,-0.04248,0.099121,1.00293,0.045450132638795576,0.09068062990074706,2.6989797800487207,0.2182173877954483,-0.012199722230434418,0.04919065907597542,0.9745832681655884
4b727e15-7be2-4d33-b379-0d284bc50678,e4e077f0-dce6-4b13-8576-32f0c76399f2,1689620434083531081,-1.485825,0.448227,-2.275467,-0.051758,0.101562,1.002441,0.04552262042113865,0.09059919467670766,2.6985980263407887,0.2184029370546341,-0.012234627269208431,0.049161240458488464,0.9745427370071411
4b727e15-7be2-4d33-b379-0d284bc50678,e4e077f0-dce6-4b13-8576-32f0c76399f2,1689620434086645081,-1.548767,0.389099,-1.787186,-0.058105,0.095215,1.000977,0.045611105886884225,0.09049173837089582,2.6983121348967054,0.21854178607463837,-0.012282568961381912,0.04912032186985016,0.9745131134986877
4b727e15-7be2-4d33-b379-0d284bc50678,e4e077f0-dce6-4b13-8576-32f0c76399f2,1689620434089759081,-1.548767,0.389099,-2.092361,-0.051758,0.095215,0.993164,0.04567890647613926,0.09038589392757879,2.6980196404218546,0.2186843454837799,-0.012320098467171192,0.04907798394560814,0.9744827747344971
4b727e15-7be2-4d33-b379-0d284bc50678,e4e077f0-dce6-4b13-8576-32f0c76399f2,1689620434092873081,-1.54686,0.448227,-2.092361,-0.054687,0.099121,1.004395,0.0457598772015963,0.09029181858296546,2.6974385561871594,0.2189669907093048,-0.01235568430274725,0.04904461279511452,0.9744205474853516
4b727e15-7be2-4d33-b379-0d284bc50678,e4e077f0-dce6-4b13-8576-32f0c76399f2,1689620434095987081,-1.548767,0.694275,-1.909256,-0.054199,0.105957,0.996094,0.04585728787789657,0.09022734470929017,2.6968183218260307,0.2192678153514862,-0.01239506434649229,0.04902772605419159,0.9743532538414001
4b727e15-7be2-4d33-b379-0d284bc50678,e4e077f0-dce6-4b13-8576-32f0c76399f2,1689620434099101081,-1.304626,0.389099,-2.035141,-0.04541,0.103027,0.994629,0.04589907022121033,0.09017069176830582,2.696185295442812,0.21957609057426453,-0.012406176887452602,0.049008648842573166,0.9742846488952637
4b727e15-7be2-4d33-b379-0d284bc50678,e4e077f0-dce6-4b13-8576-32f0c76399f2,1689620434102215081,-1.363754,0.265121,-1.852036,-0.053223,0.092773,0.992187,0.04596026269232037,0.09007238847189414,2.69581462679977,0.21975675225257874,-0.012437799014151096,0.0489698089659214,0.9742454290390015
4b727e15-7be2-4d33-b379-0d284bc50678,e4e077f0-dce6-4b13-8576-32f0c76399f2,1689620434105329081,-1.119614,0.265121,-2.153397,-0.05127,0.104492,0.996582,0.04601526221211631,0.09003437471211395,2.6954739110603314,0.2199219912290573,-0.012460463680326939,0.04895946756005287,0.9742083549499512
4b727e15-7be2-4d33-b379-0d284bc50678,e4e077f0-dce6-4b13-8576-32f0c76399f2,1689620434108443081,-1.241684,0.265121,-2.035141,-0.053711,0.095703,0.991699,0.046079251971945,0.08995627542844462,2.6951551543379337,0.22007694840431213,-0.01249250490218401,0.048930469900369644,0.974174439907074
4b727e15-7be2-4d33-b379-0d284bc50678,e4e077f0-dce6-4b13-8576-32f0c76399f2,1689620434111557081,-1.060486,0.572205,-2.153397,-0.038086,0.097168,1.002441,0.046105743574759425,0.08989391619260718,2.694584162214735,0.22035542130470276,-0.012498373165726662,0.0489065945148468,0.9741126298904419
4b727e15-7be2-4d33-b379-0d284bc50678,e4e077f0-dce6-4b13-8576-32f0c76399f2,1689620434114671081,-1.117706,0.389099,-2.035141,-0.056641,0.089355,0.986816,0.04619059204019499,0.08980323872965112,2.693970895833709,0.2206535041332245,-0.01253479439765215,0.04887564480304718,0.9740462303161621
4b727e15-7be2-4d33-b379-0d284bc50678,e4e077f0-dce6-4b13-8576-32f0c76399f2,1689620434117785081,-0.875473,0.448227,-2.275467,-0.045898,0.092285,0.994629,0.046239366655472784,0.08973890603422832,2.693337903791358,0.22096163034439087,-0.012550248764455318,0.04885368421673775,0.973977267742157
4b727e15-7be2-4d33-b379-0d284bc50678,e4e077f0-dce6-4b13-8576-32f0c76399f2,1689620434120899081,-0.814438,0.509262,-2.340317,-0.052734,0.112305,1.004395,0.04631722112417083,0.08975125325876387,2.6925998863529426,0.22131891548633575,-0.012568754144012928,0.0488729365170002,0.9738949537277222
4b727e15-7be2-4d33-b379-0d284bc50678,e4e077f0-dce6-4b13-8576-32f0c76399f2,1689620434124013081,-0.572205,0.816345,-2.523422,-0.038086,0.094727,0.998047,0.04636459160387806,0.08971751071408257,2.6918383784773825,0.2216891050338745,-0.012576984241604805,0.048866547644138336,0.9738109707832336
4b727e15-7be2-4d33-b379-0d284bc50678,e4e077f0-dce6-4b13-8576-32f0c76399f2,1689620434127127081,-0.572205,0.999451,-2.458572,-0.037109,0.097656,1.000977,0.04642096166003758,0.0896941593384646,2.6910852480768566,0.22205479443073273,-0.012588643468916416,0.04886617511510849,0.9737275242805481
4b727e15-7be2-4d33-b379-0d284bc50678,e4e077f0-dce6-4b13-8576-32f0c76399f2,1689620434130241081,-0.326157,0.631332,-2.828598,-0.054199,0.085449,0.999023,0.04651724669595057,0.08964241096972939,2.6903044581559925,0.2224334180355072,-0.012622241862118244,0.04885661602020264,0.9736410975456238
4b727e15-7be2-4d33-b379-0d284bc50678,e4e077f0-dce6-4b13-8576-32f0c76399f2,1689620434268549081,-0.143051,-0.711441,-0.875473,-0.066406,0.071777,0.999023,0.049093956538584525,0.0885972883633056,2.669988581658985,0.23226654529571533,-0.013499210588634014,0.04877425730228424,0.97133469581604
4b727e15-7be2-4d33-b379-0d284bc50678,e4e077f0-dce6-4b13-8576-32f0c76399f2,1689620434293665081,-0.509262,-0.650406,-0.932693,-0.04541,0.097656,1.002441,0.0490793955325212,0.08862936998475818,2.6700933789249275,0.23221546411514282,-0.013490931130945683,0.0487874336540699,0.9713463187217712
4b727e15-7be2-4d33-b379-0d284bc50678,e4e077f0-dce6-4b13-8576-32f0c76399f2,1689620434318781081,-0.083923,-0.648499,-1.180649,-0.064453,0.088379,1.001465,0.04913728772194684,0.08862644382141263,2.670209024925768,0.23215793073177338,-0.013522214256227016,0.048791952431201935,0.9713594317436218
4b727e15-7be2-4d33-b379-0d284bc50678,e4e077f0-dce6-4b13-8576-32f0c76399f2,1689620434343897081,-0.083923,-0.770569,-1.115799,-0.050293,0.081055,1.001465,0.04914124019575838,0.08859613367409473,2.670068330279067,0.2322266846895218,-0.01352425292134285,0.04877864941954613,0.9713436365127563
4b727e15-7be2-4d33-b379-0d284bc50678,e4e077f0-dce6-4b13-8576-32f0c76399f2,1689620434369013081,-0.448227,-0.890732,-0.810623,-0.045898,0.095215,1.005371,0.04912777366502397,0.08861809590431878,2.669878129521783,0.23231901228427887,-0.013510499149560928,0.04878903180360794,0.9713212251663208
4b727e15-7be2-4d33-b379-0d284bc50678,e4e077f0-dce6-4b13-8576-32f0c76399f2,1689620434383638081,-0.509262,-0.650406,-1.115799,-0.052734,0.101074,1.001465,0.04914103656151155,0.08866323373399586,2.6696768347606583,0.23241567611694336,-0.013506736606359482,0.0488138422369957,0.9712969064712524
4b727e15-7be2-4d33-b379-0d284bc50678,e4e077f0-dce6-4b13-8576-32f0c76399f2,1689620434398263081,-0.448227,-0.650406,-1.180649,-0.053223,0.085938,0.997559,0.04911554626540849,0.08861395264406363,2.669552352752524,0.2324775904417038,-0.013497102074325085,0.04878779873251915,0.9712835550308228
4b727e15-7be2-4d33-b379-0d284bc50678,e4e077f0-dce6-4b13-8576-32f0c76399f2,1689620434412888081,-0.083923,-0.892639,-1.115799,-0.054199,0.086914,0.993652,0.049075836374716714,0.08859772980814172,2.6694647566153002,0.23252138495445251,-0.013477579690515995,0.04877590015530586,0.9712738990783691
4b727e15-7be2-4d33-b379-0d284bc50678,e4e077f0-dce6-4b13-8576-32f0c76399f2,1689620434427513081,-0.083923,-0.831604,-1.298904,-0.050781,0.087402,0.995605,0.04902868888266651,0.0885822666465283,2.669371975955599,0.23256784677505493,-0.013454239815473557,0.04876353591680527,0.9712637662887573
4b727e15-7be2-4d33-b379-0d284bc50678,e4e077f0-dce6-4b13-8576-32f0c76399f2,1689620434442138081,-0.143051,-1.379013,-1.115799,-0.050781,0.081543,1.005371,0.04893734655930063,0.08853732882844813,2.669023556665533,0.23274004459381104,-0.01340666227042675,0.048733439296483994,0.9712246656417847
4b727e15-7be2-4d33-b379-0d284bc50678,e4e077f0-dce6-4b13-8576-32f0c76399f2,1689620434456763081,0.160217,-0.587463,-1.115799,-0.041016,0.084473,0.990234,0.04890894320678863,0.08852412365197153,2.668710354410767,0.23289304971694946,-0.013386791571974754,0.04872582107782364,0.9711886644363403
4b727e15-7be2-4d33-b379-0d284bc50678,e4e077f0-dce6-4b13-8576-32f0c76399f2,1689620434471388081,-0.265121,-0.833511,-1.420975,-0.058105,0.084473,1.003906,0.04888947292350862,0.08848070084192781,2.668277714902739,0.23310434818267822,-0.013371902517974377,0.04870537295937538,0.9711391925811768
4b727e15-7be2-4d33-b379-0d284bc50678,e4e077f0-dce6-4b13-8576-32f0c76399f2,1689620434486013081,0.099182,-0.831604,-1.180649,-0.050781,0.09375,1.015625,0.048838618184581524,0.0884970892842699,2.667991287031505,0.233244389295578,-0.013338304124772549,0.048709310591220856,0.9711058139801025
4b727e15-7be2-4d33-b379-0d284bc50678,e4e077f0-dce6-4b13-8576-32f0c76399f2,1689620434500638081,-0.022888,-1.075745,-1.363754,-0.046875,0.080078,0.988769,0.048760871552827975,0.08846102278661637,2.6677199676389116,0.23337863385677338,-0.01329819392412901,0.04868454486131668,0.9710753560066223
4b727e15-7be2-4d33-b379-0d284bc50678,e4e077f0-dce6-4b13-8576-32f0c76399f2,1689620434515263081,0.282288,-0.770569,-1.48201,-0.039062,0.093262,0.993652,0.04867684213369695,0.08849581400590206,2.667448854040006,0.23351171612739563,-0.013246700167655945,0.04869341850280762,0.9710436463356018
4b727e15-7be2-4d33-b379-0d284bc50678,e4e077f0-dce6-4b13-8576-32f0c76399f2,1689620434529888081,-0.022888,-1.075745,-1.180649,-0.043945,0.098145,1.008301,0.048583735972519526,0.08852211655384966,2.6674762525755416,0.23350024223327637,-0.013199059292674065,0.04869513213634491,0.9710469245910645
4b727e15-7be2-4d33-b379-0d284bc50678,e4e077f0-dce6-4b13-8576-32f0c76399f2,1689620434533065081,0.4673,-1.138687,-1.54686,-0.053711,0.075195,0.997559,0.04852806219143412,0.08850065585425781,2.6675257657706184,0.23347792029380798,-0.013175762258470058,0.04867789149284363,0.9710534811019897
4b727e15-7be2-4d33-b379-0d284bc50678,e4e077f0-dce6-4b13-8576-32f0c76399f2,1689620434536242081,0.282288,-0.953674,-1.48201,-0.058594,0.094238,0.994629,0.048505018115486805,0.08853840156165063,2.6675895205804574,0.2334468811750412,-0.013161682523787022,0.04869309812784195,0.9710603952407837
4b727e15-7be2-4d33-b379-0d284bc50678,e4e077f0-dce6-4b13-8576-32f0c76399f2,1689620434539419081,0.404358,-0.892639,-1.363754,-0.049316,0.095215,1.003418,0.048449034520014644,0.08858661624722267,2.6676669640694133,0.2334098219871521,-0.01313071046024561,0.0487094521522522,0.9710689187049866
4b727e15-7be2-4d33-b379-0d284bc50678,e4e077f0-dce6-4b13-8576-32f0c76399f2,1689620434542596081,0.22316,-0.528336,-1.420975,-0.049316,0.084473,1.004395,0.04842113875465408,0.08857970037965684,2.6675086186778882,0.23348750174045563,-0.013114123605191708,0.0487038791179657,0.9710507392883301
4b727e15-7be2-4d33-b379-0d284bc50678,e4e077f0-dce6-4b13-8576-32f0c76399f2,1689620434545773081,0.465393,-0.892639,-1.420975,-0.052246,0.088379,1.001465,0.04837747869804787,0.08860682574136744,2.667303215827411,0.2335878312587738,-0.01308472827076912,0.04871328920125961,0.9710265398025513
4b727e15-7be2-4d33-b379-0d284bc50678,e4e077f0-dce6-4b13-8576-32f0c76399f2,1689620434548950081,0.22316,-1.016617,-1.420975,-0.052246,0.102539,1.005371,0.048323907204826384,0.08866764441397096,2.667091474324882,0.23369091749191284,-0.01304638758301735,0.04873792827129364,0.9710009694099426
4b727e15-7be2-4d33-b379-0d284bc50678,e4e077f0-dce6-4b13-8576-32f0c76399f2,1689620434552127081,0.404358,-0.892639,-1.363754,-0.035645,0.103027,0.998535,0.04821768328731651,0.08874659278964526,2.667032851622417,0.23372063040733337,-0.012984080240130424,0.04876420646905899,0.9709933400154114
4b727e15-7be2-4d33-b379-0d284bc50678,e4e077f0-dce6-4b13-8576-32f0c76399f2,1689620434555304081,0.162125,-1.138687,-1.852036,-0.058594,0.097656,0.983398,0.04818649519816588,0.08878954834149809,2.666959610413614,0.23375621438026428,-0.012962091714143753,0.048781879246234894,0.9709842205047607
4b727e15-7be2-4d33-b379-0d284bc50678,e4e077f0-dce6-4b13-8576-32f0c76399f2,1689620434558481081,0.284195,-0.833511,-1.726151,-0.047852,0.103516,0.988281,0.048135970960442614,0.08886271986613954,2.6669054015171385,0.23378252983093262,-0.01292761042714119,0.04881183058023453,0.9709768295288086
4b727e15-7be2-4d33-b379-0d284bc50678,e4e077f0-dce6-4b13-8576-32f0c76399f2,1689620434561658081,0.528336,-1.016617,-1.54686,-0.060059,0.09668,0.995117,0.04811580927506996,0.0889263483807154,2.6665864699584088,0.23393678665161133,-0.012902527116239071,0.0488424077630043,0.9709384441375732
4b727e15-7be2-4d33-b379-0d284bc50678,e4e077f0-dce6-4b13-8576-32f0c76399f2,1689620434564835081,0.465393,-1.075745,-1.60408,-0.057129,0.097168,0.99707,0.04808009031365766,0.08898606829836336,2.666211948898473,0.23411846160888672,-0.012868989259004593,0.04886961728334427,0.9708937406539917
4b727e15-7be2-4d33-b379-0d284bc50678,e4e077f0-dce6-4b13-8576-32f0c76399f2,1689620434568012081,0.099182,-0.831604,-1.48201,-0.048828,0.093262,1.008301,0.04802838111748247,0.08900011772651528,2.6658434693999897,0.23429836332798004,-0.01283322274684906,0.04887274652719498,0.9708506464958191
4b727e15-7be2-4d33-b379-0d284bc50678,e4e077f0-dce6-4b13-8576-32f0c76399f2,1689620434571189081,0.34523,-1.199722,-1.48201,-0.054199,0.092285,0.993652,0.04797244260290223,0.0890335597766717,2.6655577552842327,0.23443785309791565,-0.01279513444751501,0.04888424649834633,0.9708169102668762
4b727e15-7be2-4d33-b379-0d284bc50678,e4e077f0-dce6-4b13-8576-32f0c76399f2,1689620434574366081,0.713348,-0.587463,-1.363754,-0.042969,0.094238,1.003906,0.047917505792028754,0.08909919704618265,2.6653033736910823,0.23456156253814697,-0.012754485942423344,0.04891127347946167,0.9707862138748169
4b727e15-7be2-4d33-b379-0d284bc50678,e4e077f0-dce6-4b13-8576-32f0c76399f2,1689620434577543081,0.4673,-0.833511,-1.237869,-0.049316,0.094727,0.994141,0.04786937568166465,0.0891515386730588,2.6650628066963513,0.23467862606048584,-0.012719044461846352,0.048932552337646484,0.9707573056221008
4b727e15-7be2-4d33-b379-0d284bc50678,e4e077f0-dce6-4b13-8576-32f0c76399f2,1689620434581380081,0.465393,-0.892639,-1.420975,-0.040527,0.100098,0.995605,0.047784455800174215,0.0892228964032326,2.6648392108187404,0.23478803038597107,-0.012663904577493668,0.04895862191915512,0.9707302451133728
4b727e15-7be2-4d33-b379-0d284bc50678,e4e077f0-dce6-4b13-8576-32f0c76399f2,1689620434585217081,0.099182,-0.465393,-1.237869,-0.057617,0.087891,1.002441,0.04782121236517971,0.08921559184647118,2.6647259584205742,0.2348422259092331,-0.01267983578145504,0.048960112035274506,0.9707168340682983
4b727e15-7be2-4d33-b379-0d284bc50678,e4e077f0-dce6-4b13-8576-32f0c76399f2,1689620434589054081,0.160217,-0.587463,-1.180649,-0.058594,0.087402,0.999512,0.04786198116132338,0.08920759147807128,2.664614504662409,0.23489545285701752,-0.01269784476608038,0.04896172508597374,0.970703661441803
4b727e15-7be2-4d33-b379-0d284bc50678,e4e077f0-dce6-4b13-8576-32f0c76399f2,1689620434592891081,0.225067,-0.465393,-1.237869,-0.037109,0.097168,1.007324,0.04781976521206646,0.08923391158683454,2.6645117869513406,0.2349458932876587,-0.012671723030507565,0.04897018522024155,0.9706913828849792
4b727e15-7be2-4d33-b379-0d284bc50678,e4e077f0-dce6-4b13-8576-32f0c76399f2,1689620434596728081,0.22316,-0.22316,-1.420975,-0.055664,0.09082,0.990234,0.04784404580084563,0.08925320804949025,2.66441690051924,0.23499102890491486,-0.012678895145654678,0.048983000218868256,0.9706797003746033
4b727e15-7be2-4d33-b379-0d284bc50678,e4e077f0-dce6-4b13-8576-32f0c76399f2,1689620434600565081,0.162125,-0.4673,-1.115799,-0.038574,0.07959,0.993652,0.04780984087473289,0.08921783489993756,2.66446095850359,0.2349710762500763,-0.01266756746917963,0.048961542546749115,0.9706857800483704
4b727e15-7be2-4d33-b379-0d284bc50678,e4e077f0-dce6-4b13-8576-32f0c76399f2,1689620434604402081,0.34523,-0.4673,-1.60408,-0.049316,0.085449,0.991699,0.047792627318064766,0.08922511257494985,2.6643839122565764,0.23500877618789673,-0.012656460516154766,0.04896353930234909,0.9706766605377197
4b727e15-7be2-4d33-b379-0d284bc50678,e4e077f0-dce6-4b13-8576-32f0c76399f2,1689620434608239081,0.530243,-0.282288,-1.298904,-0.058105,0.097168,0.990723,0.04782082799800014,0.08929165184319783,2.6646503252294753,0.23487766087055206,-0.012668786570429802,0.04899744316935539,0.9707065224647522
4b727e15-7be2-4d33-b379-0d284bc50678,e4e077f0-dce6-4b13-8576-32f0c76399f2,1689620434612076081,0.284195,-0.34523,-1.363754,-0.050293,0.104004,1.005371,0.04781239125519976,0.08936018150799174,2.664978487041536,0.23471742868423462,-0.012664619833230972,0.049027618020772934,0.9707438349723816
4b727e15-7be2-4d33-b379-0d284bc50678,e4e077f0-dce6-4b13-8576-32f0c76399f2,1689620434615913081,0.892639,-0.526428,-1.058578,-0.035645,0.106934,0.991699,0.0477351435627492,0.08949154216682075,2.665342180918498,0.23454058170318604,-0.012620496563613415,0.04907998442649841,0.9707844853401184
4b727e15-7be2-4d33-b379-0d284bc50678,e4e077f0-dce6-4b13-8576-32f0c76399f2,1689620434619750081,0.530243,-0.587463,-1.115799,-0.041504,0.100098,0.99707,0.047711916579059654,0.08953127085893159,2.665407960931143,0.23450854420661926,-0.012606141157448292,0.04909611865878105,0.9707916378974915
4b727e15-7be2-4d33-b379-0d284bc50678,e4e077f0-dce6-4b13-8576-32f0c76399f2,1689620434623587081,0.34523,-0.585556,-1.058578,-0.057129,0.095215,0.999023,0.04774772920500856,0.08955154811684175,2.665392169481554,0.2345149964094162,-0.012620734050869942,0.049110256135463715,0.9707891345024109
4b727e15-7be2-4d33-b379-0d284bc50678,e4e077f0-dce6-4b13-8576-32f0c76399f2,1689620434627424081,0.22316,-0.711441,-1.115799,-0.041016,0.093262,0.999512,0.04772215072618429,0.08956447322702103,2.6653666606473845,0.23452778160572052,-0.012606166303157806,0.0491136871278286,0.9707860946655273
4b727e15-7be2-4d33-b379-0d284bc50678,e4e077f0-dce6-4b13-8576-32f0c76399f2,1689620434631261081,0.282288,-0.648499,-0.932693,-0.044434,0.09668,0.996582,0.04771011021715287,0.08959128023338124,2.6654506694211437,0.23448684811592102,-0.012599213980138302,0.04912475124001503,0.9707955121994019
4b727e15-7be2-4d33-b379-0d284bc50678,e4e077f0-dce6-4b13-8576-32f0c76399f2,1689620434635098081,0.040054,-0.650406,-1.180649,-0.046875,0.093262,0.999512,0.047706896533057784,0.08960400460054735,2.6655554179065266,0.23443587124347687,-0.012598720379173756,0.04912988841533661,0.9708075523376465
4b727e15-7be2-4d33-b379-0d284bc50678,e4e077f0-dce6-4b13-8576-32f0c76399f2,1689620434638935081,0.162125,-0.711441,-0.875473,-0.070312,0.092285,0.98584,0.04779510904585433,0.08961729647201011,2.6656554520574662,0.2343849241733551,-0.012642424553632736,0.04914604499936104,0.9708184599876404
4b727e15-7be2-4d33-b379-0d284bc50678,e4e077f0-dce6-4b13-8576-32f0c76399f2,1689620434642772081,-0.448227,-0.22316,-1.420975,-0.052734,0.099609,0.988281,0.04780853578822707,0.08961835689204792,2.6655492020383815,0.23443615436553955,-0.012646203860640526,0.0491488054394722,0.9708058834075928
4b727e15-7be2-4d33-b379-0d284bc50678,e4e077f0-dce6-4b13-8576-32f0c76399f2,1689620434646025081,-0.44632,-0.282288,-1.115799,-0.062012,0.084961,1.000977,0.0478621284831904,0.0895989646865519,2.665524931533424,0.2344469428062439,-0.012673916295170784,0.049145832657814026,0.9708030819892883
4b727e15-7be2-4d33-b379-0d284bc50678,e4e077f0-dce6-4b13-8576-32f0c76399f2,1689620434649278081,-0.511169,-0.465393,-1.180649,-0.056641,0.098145,0.996582,0.04789597171250823,0.08963085263846564,2.6654983465440476,0.23445847630500793,-0.012685919180512428,0.04916543886065483,0.9707991480827332
4b727e15-7be2-4d33-b379-0d284bc50678,e4e077f0-dce6-4b13-8576-32f0c76399f2,1689620434652531081,-0.694275,-0.404358,-1.058578,-0.04541,0.101562,0.984375,0.04788925132105318,0.08967984624796546,2.6654747481744723,0.23446926474571228,-0.012676283717155457,0.04918856918811798,0.9707955121994019
4b727e15-7be2-4d33-b379-0d284bc50678,e4e077f0-dce6-4b13-8576-32f0c76399f2,1689620434655784081,-0.814438,-0.711441,-0.810623,-0.034668,0.094727,0.982422,0.047842170953898824,0.08970369358193023,2.6654148588861357,0.23449909687042236,-0.012649133801460266,0.049194999039173126,0.970788300037384
4b727e15-7be2-4d33-b379-0d284bc50678,e4e077f0-dce6-4b13-8576-32f0c76399f2,1689620434659037081,-1.119614,-0.528336,-0.692368,-0.058594,0.100586,0.995605,0.04784802199544651,0.08965768914069028,2.665291830842498,0.23455944657325745,-0.01265439111739397,0.049174144864082336,0.9707747101783752
4b727e15-7be2-4d33-b379-0d284bc50678,e4e077f0-dce6-4b13-8576-32f0c76399f2,1689620434662290081,-0.75531,-0.709534,-0.993729,-0.05127,0.088867,0.993652,0.04781490891943644,0.0895947456946628,2.665146452505734,0.23463188111782074,-0.01264219731092453,0.04914064332842827,0.9707590937614441
4b727e15-7be2-4d33-b379-0d284bc50678,e4e077f0-dce6-4b13-8576-32f0c76399f2,1689620434665543081,-0.87738,-0.770569,-0.993729,-0.064453,0.086426,0.996582,0.04782664301236193,0.08951266363101879,2.6650320369382428,0.23468852043151855,-0.012654795311391354,0.04910292476415634,0.9707471132278442
4b727e15-7be2-4d33-b379-0d284bc50678,e4e077f0-dce6-4b13-8576-32f0c76399f2,1689620434668796081,-0.75531,-0.648499,-0.932693,-0.055664,0.09375,0.996094,0.04785699987745632,0.08952847851948335,2.6650000108985967,0.23470304906368256,-0.012666872702538967,0.04911436140537262,0.9707428812980652
4b727e15-7be2-4d33-b379-0d284bc50678,e4e077f0-dce6-4b13-8576-32f0c76399f2,1689620434672049081,-0.328064,-0.587463,-0.875473,-0.056152,0.088867,0.993652,0.0478894778507107,0.08952675024181053,2.6649694765808194,0.23471710085868835,-0.012682091444730759,0.04911752790212631,0.9707391262054443
4b727e15-7be2-4d33-b379-0d284bc50678,e4e077f0-dce6-4b13-8576-32f0c76399f2,1689620434675302081,-0.572205,-0.770569,-0.993729,-0.052246,0.107422,1.004883,0.04790501397550998,0.08959115538242647,2.664718262426729,0.23483756184577942,-0.012675832025706768,0.0491521880030632,0.9707083106040955
4b727e15-7be2-4d33-b379-0d284bc50678,e4e077f0-dce6-4b13-8576-32f0c76399f2,1689620434678555081,-0.326157,-0.711441,-0.810623,-0.0625,0.097168,1.005371,0.04795927436105221,0.08961640175452523,2.6644210486303215,0.234980046749115,-0.01269187219440937,0.049172692000865936,0.970672607421875
4b727e15-7be2-4d33-b379-0d284bc50678,e4e077f0-dce6-4b13-8576-32f0c76399f2,1689620434681808081,-0.692368,-0.833511,-0.627518,-0.04248,0.10791,1.020508,0.047934656649293264,0.08967713695394242,2.664124752706969,0.2351234257221222,-0.012665435671806335,0.04920113831758499,0.970636785030365
4b727e15-7be2-4d33-b379-0d284bc50678,e4e077f0-dce6-4b13-8576-32f0c76399f2,1689620434685061081,-0.448227,-0.711441,-0.261307,-0.048828,0.085449,1.006348,0.04793672078473384,0.0896577911399684,2.6641830111108162,0.23509542644023895,-0.012670165859162807,0.04919162765145302,0.9706439971923828
4b727e15-7be2-4d33-b379-0d284bc50678,e4e077f0-dce6-4b13-8576-32f0c76399f2,1689620434688314081,-0.448227,-0.4673,-0.078201,-0.052734,0.09375,1.002441,0.04795438224078697,0.08967096380560277,2.6643107927860834,0.23503275215625763,-0.012680319137871265,0.04919928312301636,0.9706586599349976
4b727e15-7be2-4d33-b379-0d284bc50678,e4e077f0-dce6-4b13-8576-32f0c76399f2,1689620434691567081,-0.143051,-0.711441,-0.139236,-0.061523,0.099121,1.011719,0.048003572634132366,0.089701172492172,2.664448886825066,0.2349640130996704,-0.01270400732755661,0.04921884089708328,0.9706739783287048
4b727e15-7be2-4d33-b379-0d284bc50678,e4e077f0-dce6-4b13-8576-32f0c76399f2,1689620434694820081,-0.204086,-0.34523,0.043869,-0.046875,0.092773,0.996582,0.04799982623310249,0.08971255948339524,2.6645079392871773,0.23493525385856628,-0.012702291831374168,0.04922354966402054,0.9706807136535645
4b727e15-7be2-4d33-b379-0d284bc50678,e4e077f0-dce6-4b13-8576-32f0c76399f2,1689620434698073081,-0.205994,-0.465393,-0.078201,-0.052246,0.10498,1.001465,0.04801553995077211,0.08976825263693089,2.6645480177869505,0.23491446673870087,-0.012704307213425636,0.04925215616822243,0.970684289932251
4b727e15-7be2-4d33-b379-0d284bc50678,e4e077f0-dce6-4b13-8576-32f0c76399f2,1689620434701326081,-0.022888,-0.465393,0.101089,-0.04834,0.092773,1.012207,0.04801440275303767,0.08977414639615633,2.6645858431843044,0.23489603400230408,-0.012703989632427692,0.0492546409368515,0.9706886410713196
4b727e15-7be2-4d33-b379-0d284bc50678,e4e077f0-dce6-4b13-8576-32f0c76399f2,1689620434704579081,-0.020981,-0.34523,0.165939,-0.056152,0.092285,1.01123,0.04804309985952353,0.08977840174061058,2.664619964655017,0.23487870395183563,-0.01271824911236763,0.04925986006855965,0.9706923365592957
4b727e15-7be2-4d33-b379-0d284bc50678,e4e077f0-dce6-4b13-8576-32f0c76399f2,1689620434707832081,-0.328064,-0.282288,0.41008,-0.039062,0.087402,1.004395,0.04800809887461498,0.08976675253277633,2.6646670775310923,0.23485688865184784,-0.012703806161880493,0.0492497980594635,0.970698356628418
4b727e15-7be2-4d33-b379-0d284bc50678,e4e077f0-dce6-4b13-8576-32f0c76399f2,1689620434711085081,-0.204086,-0.22316,0.226974,-0.042969,0.088867,1.001953,0.04798843739990927,0.08976155803496169,2.6647139424706734,0.2348347157239914,-0.012696032412350178,0.04924467206001282,0.9707040786743164
4b727e15-7be2-4d33-b379-0d284bc50678,e4e077f0-dce6-4b13-8576-32f0c76399f2,1689620434714338081,-0.020981,-0.040054,-0.017166,-0.048828,0.090332,0.998535,0.047991782941186466,0.08976285282390788,2.6647586513495183,0.2348129153251648,-0.012698601931333542,0.04924540966749191,0.9707092642784119
4b727e15-7be2-4d33-b379-0d284bc50678,e4e077f0-dce6-4b13-8576-32f0c76399f2,1689620434717591081,-0.448227,0.020981,0.471115,-0.055176,0.088867,1.003906,0.04801823887640563,0.08975666867032825,2.664581192747764,0.23489849269390106,-0.012707808054983616,0.049246642738580704,0.9706884026527405
4b727e15-7be2-4d33-b379-0d284bc50678,e4e077f0-dce6-4b13-8576-32f0c76399f2,1689620434720844081,-0.143051,-0.162125,0.53215,-0.070312,0.086426,0.996094,0.048103382684360686,0.08974387961650762,2.6643558509602228,0.23500598967075348,-0.012745093554258347,0.04925187677145004,0.9706615805625916
4b727e15-7be2-4d33-b379-0d284bc50678,e4e077f0-dce6-4b13-8576-32f0c76399f2,1689620434841367081,-0.694275,-0.587463,0.41008,-0.046875,0.088867,0.993164,0.04689603069226181,0.09085923318680451,2.6640740333309383,0.23515380918979645,-0.012019914574921131,0.04965272918343544,0.9706146121025085
4b727e15-7be2-4d33-b379-0d284bc50678,e4e077f0-dce6-4b13-8576-32f0c76399f2,1689620434862421081,-0.75531,-0.831604,0.101089,-0.03418,0.097656,0.994629,0.046848557707115955,0.09088562230175574,2.6642260020326995,0.2350807934999466,-0.011997519060969353,0.049659036099910736,0.9706322550773621
4b727e15-7be2-4d33-b379-0d284bc50678,e4e077f0-dce6-4b13-8576-32f0c76399f2,1689620434883475081,-0.570297,-0.711441,0.349045,-0.052246,0.092285,1.014648,0.04686633104140459,0.09088443168572989,2.664113324472922,0.2351350486278534,-0.012003491632640362,0.04966122284531593,0.9706189632415771
4b727e15-7be2-4d33-b379-0d284bc50678,e4e077f0-dce6-4b13-8576-32f0c76399f2,1689620434904529081,-0.75531,-0.709534,0.101089,-0.050293,0.090332,0.996094,0.046879928777491815,0.09088228644730088,2.6639501623943125,0.23521393537521362,-0.012006291188299656,0.0496627613902092,0.9705997109413147
4b727e15-7be2-4d33-b379-0d284bc50678,e4e077f0-dce6-4b13-8576-32f0c76399f2,1689620434925583081,-0.75531,-0.709534,-0.017166,-0.034668,0.109375,0.986816,0.04683577701695455,0.09095540234433046,2.6637833428020508,0.23529475927352905,-0.01197204738855362,0.04969403147697449,0.9705789685249329
4b727e15-7be2-4d33-b379-0d284bc50678,e4e077f0-dce6-4b13-8576-32f0c76399f2,1689620434946637081,-0.934601,-1.075745,0.101089,-0.041992,0.099121,0.993164,0.04673613270664192,0.09091678025637645,2.6638179255881207,0.2352810949087143,-0.011929134838283062,0.04966336861252785,0.9705843925476074
4b727e15-7be2-4d33-b379-0d284bc50678,e4e077f0-dce6-4b13-8576-32f0c76399f2,1689620434961218081,-0.87738,-1.075745,0.043869,-0.041992,0.098145,0.992187,0.04671938423847907,0.09094547298076745,2.6638793423905973,0.23525123298168182,-0.01191912405192852,0.049674950540065765,0.970591127872467
4b727e15-7be2-4d33-b379-0d284bc50678,e4e077f0-dce6-4b13-8576-32f0c76399f2,1689620434975799081,-0.631332,-1.073837,-0.261307,-0.043945,0.083984,1.006348,0.04670762102521552,0.09091574471249224,2.6639474817799953,0.23521895706653595,-0.011918633244931698,0.04965874180197716,0.9705997705459595
4b727e15-7be2-4d33-b379-0d284bc50678,e4e077f0-dce6-4b13-8576-32f0c76399f2,1689620434990380081,-0.814438,-1.199722,-0.139236,-0.036621,0.078613,0.992187,0.04658069115238102,0.09080881016828155,2.663716408578694,0.23533602058887482,-0.011863995343446732,0.04959331452846527,0.9705754518508911
4b727e15-7be2-4d33-b379-0d284bc50678,e4e077f0-dce6-4b13-8576-32f0c76399f2,1689620435004961081,-1.117706,-1.25885,-0.017166,-0.036133,0.092285,1.006836,0.04644432083797864,0.09072612560630035,2.6634391954240764,0.2354753017425537,-0.011800765059888363,0.04953879863023758,0.97054523229599
4b727e15-7be2-4d33-b379-0d284bc50678,e4e077f0-dce6-4b13-8576-32f0c76399f2,1689620435019542081,-0.87738,-1.38092,-0.261307,-0.031738,0.084961,1.012207,0.04628337903353177,0.09063195939851865,2.66313531712015,0.23562832176685333,-0.011726325377821922,0.049475960433483124,0.9705121517181396
4b727e15-7be2-4d33-b379-0d284bc50678,e4e077f0-dce6-4b13-8576-32f0c76399f2,1689620435034123081,-1.243591,-0.892639,-0.322342,-0.042969,0.091309,1.001953,0.04620465254932978,0.09053755322326289,2.66284153615337,0.23577438294887543,-0.011692085303366184,0.04942261427640915,0.9704798460006714
4b727e15-7be2-4d33-b379-0d284bc50678,e4e077f0-dce6-4b13-8576-32f0c76399f2,1689620435048704081,-0.997543,-1.138687,-0.261307,-0.046387,0.095703,0.990723,0.04612238196017581,0.09048252500774094,2.6625561125507513,0.23591582477092743,-0.011651658453047276,0.049387890845537186,0.9704477190971375
4b727e15-7be2-4d33-b379-0d284bc50678,e4e077f0-dce6-4b13-8576-32f0c76399f2,1689620435063285081,-1.180649,-1.199722,-0.505447,-0.045898,0.089844,0.993652,0.04603509537667068,0.09038989706632314,2.6622567216692206,0.23606477677822113,-0.011612941510975361,0.049334410578012466,0.9704146981239319
4b727e15-7be2-4d33-b379-0d284bc50678,e4e077f0-dce6-4b13-8576-32f0c76399f2,1689620435077866081,-0.875473,-1.016617,-0.322342,-0.044434,0.100098,0.995605,0.046029652746152276,0.09042674345019365,2.6619948804005977,0.23619134724140167,-0.011599453166127205,0.04935315623879433,0.9703831076622009
4b727e15-7be2-4d33-b379-0d284bc50678,e4e077f0-dce6-4b13-8576-32f0c76399f2,1689620435092447081,-1.060486,-0.892639,-0.387192,-0.039551,0.093262,0.99707,0.045940204162754274,0.09035589268245084,2.6618728348294947,0.23625394701957703,-0.011561479419469833,0.04930894076824188,0.9703705310821533
4b727e15-7be2-4d33-b379-0d284bc50678,e4e077f0-dce6-4b13-8576-32f0c76399f2,1689620435107028081,-1.119614,-1.138687,-0.570297,-0.040527,0.089844,0.986816,0.04583946990207831,0.09027052855018661,2.6617703520124167,0.2363075613975525,-0.011520249769091606,0.04925623536109924,0.9703606367111206
4b727e15-7be2-4d33-b379-0d284bc50678,e4e077f0-dce6-4b13-8576-32f0c76399f2,1689620435110219081,-0.936508,-0.833511,-0.387192,-0.038574,0.096191,1.011719,0.04580970040200757,0.09028773662545607,2.661715197308347,0.23633477091789246,-0.011502397246658802,0.04926137998700142,0.9703539609909058
4b727e15-7be2-4d33-b379-0d284bc50678,e4e077f0-dce6-4b13-8576-32f0c76399f2,1689620435113410081,-0.936508,-0.650406,-0.387192,-0.056641,0.104004,1.002441,0.04585024452680384,0.09033719764057069,2.6616901628691796,0.2363450974225998,-0.011515559628605843,0.04929029941558838,0.9703498482704163
4b727e15-7be2-4d33-b379-0d284bc50678,e4e077f0-dce6-4b13-8576-32f0c76399f2,1689620435116601081,-1.182556,-0.770569,-0.692368,-0.04834,0.093262,0.996582,0.04580624503761036,0.09025636710714696,2.6616277070618937,0.23637782037258148,-0.011502305045723915,0.04924626275897026,0.9703442454338074
4b727e15-7be2-4d33-b379-0d284bc50678,e4e077f0-dce6-4b13-8576-32f0c76399f2,1689620435119792081,-0.997543,-0.650406,-0.692368,-0.04248,0.090332,1.001953,0.04579320415762245,0.09025469606202524,2.6616170860698563,0.236383318901062,-0.011495917104184628,0.04924397170543671,0.9703431129455566
4b727e15-7be2-4d33-b379-0d284bc50678,e4e077f0-dce6-4b13-8576-32f0c76399f2,1689620435122983081,-0.75531,-0.953674,-0.875473,-0.055176,0.080078,1.001465,0.04576203188710561,0.09015437600195986,2.661827945673483,0.23628343641757965,-0.01149793528020382,0.04919042810797691,0.9703701138496399
4b727e15-7be2-4d33-b379-0d284bc50678,e4e077f0-dce6-4b13-8576-32f0c76399f2,1689620435126174081,-0.814438,-0.711441,-0.627518,-0.048828,0.098145,1.013184,0.04577125929140209,0.09017868624487937,2.6621602690534467,0.23612156510353088,-0.011507692746818066,0.049201395362615585,0.9704088568687439
4b727e15-7be2-4d33-b379-0d284bc50678,e4e077f0-dce6-4b13-8576-32f0c76399f2,1689620435129365081,-0.934601,-0.465393,-0.875473,-0.041504,0.098145,0.988281,0.045756991500629104,0.09021146039480052,2.6625030927052524,0.23595502972602844,-0.011505305767059326,0.04921363294124603,0.9704487919807434
4b727e15-7be2-4d33-b379-0d284bc50678,e4e077f0-dce6-4b13-8576-32f0c76399f2,1689620435132556081,-0.816345,-0.770569,-0.505447,-0.041992,0.088379,1.003418,0.04574193433263339,0.09020226522257355,2.6623029272358876,0.23605267703533173,-0.0114941680803895,0.04920854791998863,0.9704254269599915
4b727e15-7be2-4d33-b379-0d284bc50678,e4e077f0-dce6-4b13-8576-32f0c76399f2,1689620435135747081,-0.87738,-0.587463,-0.387192,-0.031738,0.090332,1.013672,0.04568630978524267,0.09019699103661155,2.6619994265223195,0.23620139062404633,-0.011460340581834316,0.04920116439461708,0.9703900218009949
4b727e15-7be2-4d33-b379-0d284bc50678,e4e077f0-dce6-4b13-8576-32f0c76399f2,1689620435138938081,-0.75531,-0.587463,-0.570297,-0.038574,0.092773,1.017578,0.04565612100690344,0.0901995891117596,2.6616747480704963,0.2363596260547638,-0.011437393724918365,0.049200717359781265,0.9703517556190491
4b727e15-7be2-4d33-b379-0d284bc50678,e4e077f0-dce6-4b13-8576-32f0c76399f2,1689620435142129081,-0.511169,-0.587463,-0.444412,-0.048828,0.09668,1.013672,0.04566568448104746,0.09021801550144803,2.6617300214244337,0.2363322675228119,-0.011441199108958244,0.04921046644449234,0.9703578948974609
4b727e15-7be2-4d33-b379-0d284bc50678,e4e077f0-dce6-4b13-8576-32f0c76399f2,1689620435145320081,-0.75531,-0.648499,-0.505447,-0.042969,0.101074,1.005371,0.04565439407899842,0.09025588577140392,2.6618634737342397,0.23626717925071716,-0.011434490792453289,0.04922673478722572,0.9703729748725891
4b727e15-7be2-4d33-b379-0d284bc50678,e4e077f0-dce6-4b13-8576-32f0c76399f2,1689620435148511081,-0.572205,-0.404358,-0.204086,-0.050781,0.108887,0.999512,0.045673859252726885,0.09032487072325167,2.6620083658827585,0.23619526624679565,-0.01143928524106741,0.049261659383773804,0.970388650894165
4b727e15-7be2-4d33-b379-0d284bc50678,e4e077f0-dce6-4b13-8576-32f0c76399f2,1689620435151702081,-0.87738,-0.770569,-0.505447,-0.043457,0.080566,1.000488,0.04566523615180251,0.09028666552826205,2.662157406000124,0.23612378537654877,-0.011443324387073517,0.049241259694099426,0.9704070687294006
4b727e15-7be2-4d33-b379-0d284bc50678,e4e077f0-dce6-4b13-8576-32f0c76399f2,1689620435154893081,-0.814438,-0.650406,-0.204086,-0.037598,0.08252,1.007812,0.04563317658555179,0.09025350198897539,2.6622660125169775,0.23607242107391357,-0.011434391140937805,0.049220770597457886,0.9704207181930542
4b727e15-7be2-4d33-b379-0d284bc50678,e4e077f0-dce6-4b13-8576-32f0c76399f2,1689620435158716081,-0.75531,-0.648499,-0.017166,-0.036621,0.090332,1.000977,0.04559865827412607,0.09025235659083451,2.6623655411386027,0.23602500557899475,-0.011420223861932755,0.04921557381749153,0.9704326391220093
4b727e15-7be2-4d33-b379-0d284bc50678,e4e077f0-dce6-4b13-8576-32f0c76399f2,1689620435162539081,-0.75531,-0.343323,-0.139236,-0.047363,0.093262,0.998535,0.04560544894496431,0.09026296460848157,2.662458639148149,0.23597948253154755,-0.011424551717936993,0.0492209866642952,0.9704434275627136
4b727e15-7be2-4d33-b379-0d284bc50678,e4e077f0-dce6-4b13-8576-32f0c76399f2,1689620435166362081,-0.692368,-0.34523,0.043869,-0.042969,0.085938,1.004395,0.045594570222722536,0.09024390838369893,2.662305155163175,0.23605453968048096,-0.011417762376368046,0.04921133816242218,0.9704257249832153
4b727e15-7be2-4d33-b379-0d284bc50678,e4e077f0-dce6-4b13-8576-32f0c76399f2,1689620435170185081,-0.631332,-0.34523,0.043869,-0.038574,0.088867,1.0,0.04556777385888727,0.09023759693036877,2.662104636320175,0.23615258932113647,-0.01140058133751154,0.04920625686645508,0.9704023599624634
4b727e15-7be2-4d33-b379-0d284bc50678,e4e077f0-dce6-4b13-8576-32f0c76399f2,1689620435174008081,-0.936508,-0.528336,0.043869,-0.049316,0.088379,0.995117,0.04558272451316452,0.09023092967772396,2.661892284087002,0.23625536262989044,-0.011403405107557774,0.049205999821424484,0.9703773260116577
4b727e15-7be2-4d33-b379-0d284bc50678,e4e077f0-dce6-4b13-8576-32f0c76399f2,1689620435177831081,-0.389099,-0.343323,0.41008,-0.05127,0.088867,0.986328,0.04560658441045702,0.09022905724274158,2.6619458468658848,0.2362288236618042,-0.011416519992053509,0.04920760542154312,0.9703835248947144
4b727e15-7be2-4d33-b379-0d284bc50678,e4e077f0-dce6-4b13-8576-32f0c76399f2,1689620435181654081,-0.511169,-0.282288,0.41008,-0.058594,0.081055,1.008789,0.04565429857175308,0.09018993005133032,2.662050114590134,0.2361776977777481,-0.011446897871792316,0.049193669110536575,0.9703963398933411
4b727e15-7be2-4d33-b379-0d284bc50678,e4e077f0-dce6-4b13-8576-32f0c76399f2,1689620435185477081,-0.936508,-0.22316,0.41008,-0.044434,0.086914,1.005371,0.045648565638498624,0.09017458078740886,2.662168906339838,0.23612046241760254,-0.011448861099779606,0.04918486997485161,0.9704106450080872
4b727e15-7be2-4d33-b379-0d284bc50678,e4e077f0-dce6-4b13-8576-32f0c76399f2,1689620435189300081,-0.936508,-0.34523,0.349045,-0.04541,0.092285,1.011719,0.045645564377226486,0.0901771838953231,2.6621698120379405,0.2361200451850891,-0.011447121389210224,0.049185771495103836,0.9704107642173767
4b727e15-7be2-4d33-b379-0d284bc50678,e4e077f0-dce6-4b13-8576-32f0c76399f2,1689620435193123081,-0.631332,-0.402451,0.53215,-0.054199,0.097168,0.991699,0.04567938250237565,0.09020493112251168,2.662143890712176,0.23613134026527405,-0.011459586210548878,0.04920336976647377,0.9704069495201111
4b727e15-7be2-4d33-b379-0d284bc50678,e4e077f0-dce6-4b13-8576-32f0c76399f2,1689620435196946081,-0.572205,-0.465393,0.471115,-0.046875,0.09082,1.001953,0.04568339099181323,0.09020540340920163,2.6621160775652593,0.23614472150802612,-0.011460794135928154,0.049204230308532715,0.9704036712646484
4b727e15-7be2-4d33-b379-0d284bc50678,e4e077f0-dce6-4b13-8576-32f0c76399f2,1689620435200769081,-0.999451,-0.587463,0.41008,-0.041504,0.094238,1.005859,0.045666378715975765,0.09021744210718247,2.6624519763188315,0.23598197102546692,-0.011459365487098694,0.04920613765716553,0.9704431295394897
4b727e15-7be2-4d33-b379-0d284bc50678,e4e077f0-dce6-4b13-8576-32f0c76399f2,1689620435204592081,-0.75531,-0.465393,0.165939,-0.050781,0.08252,1.000488,0.045685608326850514,0.090186875049233,2.6628542342331505,0.2357868105173111,-0.011482227593660355,0.049191273748874664,0.9704910516738892
4b727e15-7be2-4d33-b379-0d284bc50678,e4e077f0-dce6-4b13-8576-32f0c76399f2,1689620435208415081,-0.448227,-0.22316,0.471115,-0.031738,0.092773,1.003906,0.04563189906117612,0.090194175128395,2.663273763709289,0.23558442294597626,-0.011465619318187237,0.04918607696890831,0.9705407023429871
4b727e15-7be2-4d33-b379-0d284bc50678,e4e077f0-dce6-4b13-8576-32f0c76399f2,1689620435212238081,-0.631332,-0.162125,0.471115,-0.052246,0.093262,1.000488,0.04565680143809813,0.09020421356805668,2.6636850251000017,0.23538407683372498,-0.011486622504889965,0.04919151961803436,0.970588743686676
4b727e15-7be2-4d33-b379-0d284bc50678,e4e077f0-dce6-4b13-8576-32f0c76399f2,1689620435216061081,-0.509262,-0.22316,0.349045,-0.04248,0.091309,0.998535,0.04564486528284925,0.09020767494847125,2.6637339897836583,0.2353605479001999,-0.011481625027954578,0.049191512167453766,0.9705945253372192
4b727e15-7be2-4d33-b379-0d284bc50678,e4e077f0-dce6-4b13-8576-32f0c76399f2,1689620435219884081,-0.631332,-0.528336,0.471115,-0.051758,0.090332,1.005859,0.045667007026411716,0.0902046630157793,2.6637064190262247,0.23537343740463257,-0.0114920474588871,0.04919281601905823,0.9705911874771118
4b727e15-7be2-4d33-b379-0d284bc50678,e4e077f0-dce6-4b13-8576-32f0c76399f2,1689620435223610081,-0.631332,-0.528336,0.772476,-0.043457,0.083008,0.990234,0.04566019242388592,0.09017962941965407,2.663666919775688,0.23539318144321442,-0.01149074174463749,0.04918009787797928,0.9705870747566223
4b727e15-7be2-4d33-b379-0d284bc50678,e4e077f0-dce6-4b13-8576-32f0c76399f2,1689620435227336081,-0.448227,-0.711441,0.471115,-0.044434,0.089355,1.004395,0.045654645637597545,0.09017378385413881,2.6635999097596197,0.2354259341955185,-0.01148709561675787,0.04917699471116066,0.9705793261528015
4b727e15-7be2-4d33-b379-0d284bc50678,e4e077f0-dce6-4b13-8576-32f0c76399f2,1689620435231062081,-0.509262,-0.22316,0.53215,-0.039551,0.095215,0.999023,0.045631519010877405,0.09019193749361597,2.6635294897347337,0.23546037077903748,-0.011471989564597607,0.04918348044157028,0.9705708622932434
4b727e15-7be2-4d33-b379-0d284bc50678,e4e077f0-dce6-4b13-8576-32f0c76399f2,1689620435234788081,-0.448227,-0.4673,0.471115,-0.041016,0.076172,0.998535,0.045614124358196916,0.09013840512591276,2.6634582121395436,0.23549626767635345,-0.011468151584267616,0.04915587604045868,0.9705635905265808
4b727e15-7be2-4d33-b379-0d284bc50678,e4e077f0-dce6-4b13-8576-32f0c76399f2,1689620435238514081,-0.448227,-0.040054,0.959396,-0.043945,0.091309,1.003906,0.04560696524618722,0.09014028675843826,2.663118713482471,0.23566116392612457,-0.011456108652055264,0.04915789142251015,0.9705235958099365
4b727e15-7be2-4d33-b379-0d284bc50678,e4e077f0-dce6-4b13-8576-32f0c76399f2,1689620435242240081,-0.265121,-0.34523,0.772476,-0.044922,0.078125,1.008301,0.045602844708359645,0.09009085341122175,2.662728268350306,0.23585154116153717,-0.011450390331447124,0.04913566634058952,0.9704785346984863
4b727e15-7be2-4d33-b379-0d284bc50678,e4e077f0-dce6-4b13-8576-32f0c76399f2,1689620435245966081,-0.020981,-0.34523,0.959396,-0.045898,0.095703,0.989258,0.045605656618507906,0.09011449158553123,2.6623302275681793,0.23604422807693481,-0.011439160443842411,0.04914974048733711,0.9704310894012451
4b727e15-7be2-4d33-b379-0d284bc50678,e4e077f0-dce6-4b13-8576-32f0c76399f2,1689620435249692081,-0.083923,-0.404358,0.654221,-0.039551,0.088379,1.003418,0.045582013150475734,0.09010551704771189,2.661992635034035,0.2362087517976761,-0.011420464143157005,0.049144525080919266,0.970391571521759
4b727e15-7be2-4d33-b379-0d284bc50678,e4e077f0-dce6-4b13-8576-32f0c76399f2,1689620435253418081,-0.389099,-0.648499,0.471115,-0.038086,0.089844,1.009277,0.045551831058699914,0.09010022465774353,2.6616699599341342,0.2363661378622055,-0.011398522183299065,0.04914023354649544,0.9703537225723267
