section id,recording id,timestamp [ns],gyro x [deg/s],gyro y [deg/s],gyro z [deg/s],acceleration x [G],acceleration y [G],acceleration z [G],roll [deg],pitch [deg],yaw [deg],quaternion w,quaternion x,quaternion y,quaternion z
d8025493-41a0-4331-b7f4-900253c028e8,236cefd1-6135-4146-be60-3ebdf399abd9,1695845147713579196,2.471924,-1.556396,-7.84111,-0.102051,0.029297,1.00293,4.695536166047245,1.3056848857946743,-111.70315346072442,0.5612173080444336,0.040290240198373795,0.013572035357356071,-0.8265758156776428
d8025493-41a0-4331-b7f4-900253c028e8,236cefd1-6135-4146-be60-3ebdf399abd9,1695845147716429196,2.653122,-1.79863,-7.966995,-0.100098,0.019531,0.984375,4.692667091158579,1.313715360620425,-111.7356579511294,0.5609850883483887,0.04031264781951904,0.013488586992025375,-0.8267337083816528
d8025493-41a0-4331-b7f4-900253c028e8,236cefd1-6135-4146-be60-3ebdf399abd9,1695845147719279196,2.653122,-1.676559,-8.573532,-0.097168,0.023438,0.978027,4.6898830181914635,1.3223798699493754,-111.77156084595093,0.5607284307479858,0.04033912345767021,0.013399769552052021,-0.8269079923629761
d8025493-41a0-4331-b7f4-900253c028e8,236cefd1-6135-4146-be60-3ebdf399abd9,1695845147722129196,2.412796,-1.79863,-8.329391,-0.09668,0.025391,0.987305,4.686284897160918,1.3304175835778693,-111.80633371655765,0.5604798197746277,0.04035647585988045,0.013311878778040409,-0.8270770907402039
d8025493-41a0-4331-b7f4-900253c028e8,236cefd1-6135-4146-be60-3ebdf399abd9,1695845147724979196,2.103806,-1.859665,-8.756638,-0.09375,0.029297,1.000488,4.6816168602141275,1.337730773047118,-111.83472598855721,0.5602771639823914,0.04036178067326546,0.013226228766143322,-0.8272154927253723
d8025493-41a0-4331-b7f4-900253c028e8,236cefd1-6135-4146-be60-3ebdf399abd9,1695845147727829196,2.286911,-1.981735,-9.000778,-0.094727,0.013184,0.982422,4.6769942171252294,1.342326512528629,-111.86253526062552,0.5600780248641968,0.04035404324531555,0.013160636648535728,-0.8273517489433289
d8025493-41a0-4331-b7f4-900253c028e8,236cefd1-6135-4146-be60-3ebdf399abd9,1695845147730679196,2.471924,-2.410889,-8.943558,-0.099609,0.019531,0.991211,4.671427482810826,1.3490552055462997,-111.88972217180952,0.5598839521408081,0.040349796414375305,0.013075243681669235,-0.827484667301178
d8025493-41a0-4331-b7f4-900253c028e8,236cefd1-6135-4146-be60-3ebdf399abd9,1695845147733529196,2.103806,-2.164841,-9.431839,-0.104492,0.024902,1.00293,4.66784663189383,1.355100259371562,-111.91680950481862,0.5596901774406433,0.040356505662202835,0.013004527427256107,-0.8276165127754211
d8025493-41a0-4331-b7f4-900253c028e8,236cefd1-6135-4146-be60-3ebdf399abd9,1695845147736379196,2.286911,-2.531052,-9.550095,-0.103516,0.030273,1.00293,4.662487953372724,1.363042954417542,-111.94396411428629,0.5594965219497681,0.040359605103731155,0.012911389581859112,-0.8277487754821777
d8025493-41a0-4331-b7f4-900253c028e8,236cefd1-6135-4146-be60-3ebdf399abd9,1695845147739229196,1.981735,-2.103806,-10.286331,-0.105957,0.021484,0.993652,4.659784076063634,1.3675146502626254,-111.97401264701041,0.5592808127403259,0.04036524519324303,0.012855280190706253,-0.8278951048851013
d8025493-41a0-4331-b7f4-900253c028e8,236cefd1-6135-4146-be60-3ebdf399abd9,1695845147742079196,1.983643,-2.410889,-10.038376,-0.09375,0.006836,0.97998,4.6533374604611195,1.3689587072550826,-111.98674874380555,0.5591898560523987,0.04032713174819946,0.012808894738554955,-0.8279591202735901
d8025493-41a0-4331-b7f4-900253c028e8,236cefd1-6135-4146-be60-3ebdf399abd9,1695845147744929196,1.79863,-2.531052,-10.709763,-0.090332,0.023438,0.993652,4.64547253001442,1.3728997484090195,-111.99905121958089,0.5591027736663818,0.04029087349772453,0.012737694196403027,-0.8280207514762878
d8025493-41a0-4331-b7f4-900253c028e8,236cefd1-6135-4146-be60-3ebdf399abd9,1695845147747779196,1.495361,-2.410889,-10.896683,-0.087402,0.022461,0.994629,4.637538287150964,1.3752261757754434,-112.01133097848026,0.5590154528617859,0.04024624079465866,0.01267785020172596,-0.8280828595161438
d8025493-41a0-4331-b7f4-900253c028e8,236cefd1-6135-4146-be60-3ebdf399abd9,1695845147750629196,1.12915,-2.410889,-11.137009,-0.096191,0.022949,0.991699,4.6316067209383345,1.3759913395737375,-112.0244288113612,0.5589216351509094,0.04020854830741882,0.012638784945011139,-0.828148603439331
d8025493-41a0-4331-b7f4-900253c028e8,236cefd1-6135-4146-be60-3ebdf399abd9,1695845147753479196,0.822067,-2.592087,-11.568069,-0.106445,0.023438,0.990234,4.627189167654467,1.3753906341277888,-112.05201400672189,0.5587226152420044,0.04017673060297966,0.01261190976947546,-0.8282848000526428
d8025493-41a0-4331-b7f4-900253c028e8,236cefd1-6135-4146-be60-3ebdf399abd9,1695845147756329196,0.638962,-3.324509,-11.808395,-0.106445,0.018555,0.988769,4.619643125182239,1.3728658210177562,-112.08307422244707,0.5584983229637146,0.040113307535648346,0.012582506984472275,-0.8284395933151245
d8025493-41a0-4331-b7f4-900253c028e8,236cefd1-6135-4146-be60-3ebdf399abd9,1695845147759179196,0.638962,-2.531052,-12.174606,-0.089844,0.025391,0.991211,4.611983645075144,1.3717042453134076,-112.11608744211107,0.5582602024078369,0.04005589336156845,0.012542039155960083,-0.8286034464836121
d8025493-41a0-4331-b7f4-900253c028e8,236cefd1-6135-4146-be60-3ebdf399abd9,1695845147762603196,0.333786,-3.324509,-13.090134,-0.091797,0.033203,0.97998,4.601607331153543,1.3706592213064948,-112.15816177868639,0.5579568147659302,0.039980366826057434,0.012484371662139893,-0.828812301158905
d8025493-41a0-4331-b7f4-900253c028e8,236cefd1-6135-4146-be60-3ebdf399abd9,1695845147766027196,0.394821,-3.446579,-13.151169,-0.097168,0.019043,0.982422,4.591857803618741,1.3667888625450964,-112.20151614604437,0.5576433539390564,0.03989575058221817,0.012449820525944233,-0.8290278911590576
d8025493-41a0-4331-b7f4-900253c028e8,236cefd1-6135-4146-be60-3ebdf399abd9,1695845147769451196,0.276566,-3.263474,-14.009476,-0.094727,0.013672,0.990234,4.582366007149191,1.3609102588789506,-112.24865592986131,0.557301938533783,0.039803627878427505,0.012429812923073769,-0.8292621374130249
d8025493-41a0-4331-b7f4-900253c028e8,236cefd1-6135-4146-be60-3ebdf399abd9,1695845147772875196,0.274658,-3.387451,-14.375687,-0.102051,0.021973,0.987305,4.574042140551176,1.3567482822586416,-112.29388445465969,0.5569745302200317,0.0397280752658844,0.012403788976371288,-0.829486072063446
d8025493-41a0-4331-b7f4-900253c028e8,236cefd1-6135-4146-be60-3ebdf399abd9,1695845147776299196,0.030518,-3.509521,-14.863968,-0.111816,0.037598,0.992187,4.56728614198254,1.3547401224946463,-112.34043785272266,0.5566377639770508,0.03967445343732834,0.012369380332529545,-0.8297151923179626
d8025493-41a0-4331-b7f4-900253c028e8,236cefd1-6135-4146-be60-3ebdf399abd9,1695845147779723196,-0.152588,-3.387451,-15.352249,-0.11084,0.032227,0.983398,4.561035372829516,1.3506698459978288,-112.38884773619051,0.5562869310379028,0.03961466997861862,0.01235177181661129,-0.8299535512924194
d8025493-41a0-4331-b7f4-900253c028e8,236cefd1-6135-4146-be60-3ebdf399abd9,1695845147783147196,-0.154495,-3.324509,-16.019821,-0.106934,0.021973,0.989258,4.554240183672738,1.344129170726585,-112.44252114623026,0.5558973550796509,0.039539530873298645,0.012347666546702385,-0.8302181363105774
d8025493-41a0-4331-b7f4-900253c028e8,236cefd1-6135-4146-be60-3ebdf399abd9,1695845147786571196,-0.091553,-3.566742,-16.569138,-0.09082,0.021484,0.993164,4.5429085417020625,1.3375773860204336,-112.49893205615197,0.5554882884025574,0.03943176567554474,0.01232078392058611,-0.8304974436759949
d8025493-41a0-4331-b7f4-900253c028e8,236cefd1-6135-4146-be60-3ebdf399abd9,1695845147789995196,0.152588,-3.875732,-17.122269,-0.101074,0.024414,1.005371,4.532341286366192,1.3325076606400437,-112.55787681565602,0.5550609827041626,0.03933696076273918,0.012286090292036533,-0.8307880759239197
d8025493-41a0-4331-b7f4-900253c028e8,236cefd1-6135-4146-be60-3ebdf399abd9,1695845147793419196,0.455856,-3.629684,-17.793655,-0.090332,0.032227,0.999023,4.520734985909621,1.3302941774349446,-112.62887148684129,0.5545468926429749,0.039249688386917114,0.012221614830195904,-0.8311364054679871
d8025493-41a0-4331-b7f4-900253c028e8,236cefd1-6135-4146-be60-3ebdf399abd9,1695845147796843196,0.455856,-3.81279,-18.400192,-0.103516,0.019043,0.996582,4.511324025014381,1.3250452198837073,-112.70429062624616,0.5539995431900024,0.03916409611701965,0.012188393622636795,-0.8315058946609497
d8025493-41a0-4331-b7f4-900253c028e8,236cefd1-6135-4146-be60-3ebdf399abd9,1695845147800267196,0.822067,-3.507614,-19.010544,-0.103516,0.019531,0.993652,4.503380709527785,1.3213317336930175,-112.78271789008784,0.5534303188323975,0.03909685090184212,0.01215019728988409,-0.8318885564804077
d8025493-41a0-4331-b7f4-900253c028e8,236cefd1-6135-4146-be60-3ebdf399abd9,1695845147803691196,1.127243,-3.629684,-19.258499,-0.092285,0.016113,1.001953,4.492391746891247,1.3181087049233735,-112.86215210314191,0.5528539419174194,0.03900992497801781,0.012093499302864075,-0.8322766423225403
d8025493-41a0-4331-b7f4-900253c028e8,236cefd1-6135-4146-be60-3ebdf399abd9,1695845147807115196,1.253128,-3.629684,-20.170212,-0.100098,0.016113,0.994629,4.483341067283324,1.3151664717293594,-112.9414637679689,0.5522780418395996,0.038938362151384354,0.0120442695915699,-0.8326629996299744
d8025493-41a0-4331-b7f4-900253c028e8,236cefd1-6135-4146-be60-3ebdf399abd9,1695845147810539196,1.434326,-4.180908,-20.292282,-0.086914,0.027832,1.007812,4.46886891431149,1.3154857316933064,-113.02032084863559,0.5517064929008484,0.03884296864271164,0.011945472098886967,-0.8330476880073547
d8025493-41a0-4331-b7f4-900253c028e8,236cefd1-6135-4146-be60-3ebdf399abd9,1695845147813963196,1.493454,-3.995895,-20.906448,-0.095215,0.015625,1.000488,4.457232618586745,1.3132694580940765,-113.10160173462577,0.5511161684989929,0.03875615447759628,0.011878082528710365,-0.8334433436393738
d8025493-41a0-4331-b7f4-900253c028e8,236cefd1-6135-4146-be60-3ebdf399abd9,1695845147817387196,1.617432,-4.058838,-21.146774,-0.108887,0.024902,0.994629,4.448447111480355,1.3135649010491866,-113.1779421377027,0.550561785697937,0.03870154917240143,0.011807898990809917,-0.8338131904602051
d8025493-41a0-4331-b7f4-900253c028e8,236cefd1-6135-4146-be60-3ebdf399abd9,1695845147820811196,1.859665,-3.93486,-21.512985,-0.107422,0.01416,0.997559,4.439900392664902,1.3124668382319202,-113.25461061031032,0.5500044226646423,0.03864195942878723,0.01174897886812687,-0.8341845273971558
d8025493-41a0-4331-b7f4-900253c028e8,236cefd1-6135-4146-be60-3ebdf399abd9,1695845147824235196,2.103806,-4.362106,-21.883011,-0.093262,0.029785,1.005371,4.426368729305917,1.3156808421096333,-113.33247030101148,0.5494396090507507,0.03856677561998367,0.011634419672191143,-0.8345617651939392
d8025493-41a0-4331-b7f4-900253c028e8,236cefd1-6135-4146-be60-3ebdf399abd9,1695845147827659196,2.044678,-4.669189,-22.306442,-0.097168,0.026855,0.991211,4.412686232425205,1.3179315267832286,-113.41959145320111,0.5488068461418152,0.038486674427986145,0.011523156426846981,-0.834983229637146
d8025493-41a0-4331-b7f4-900253c028e8,236cefd1-6135-4146-be60-3ebdf399abd9,1695845147831083196,2.164841,-4.728317,-22.737503,-0.097168,0.028809,0.991699,4.398830224252575,1.3210051459308483,-113.50994800595173,0.548150360584259,0.03840941563248634,0.01140410453081131,-0.8354195356369019
d8025493-41a0-4331-b7f4-900253c028e8,236cefd1-6135-4146-be60-3ebdf399abd9,1695845147834507196,1.922607,-4.669189,-22.977829,-0.098633,0.029785,0.992187,4.38562678441683,1.3231576060882142,-113.60141002436553,0.5474851727485657,0.03833246976137161,0.01129465363919735,-0.8358606696128845
d8025493-41a0-4331-b7f4-900253c028e8,236cefd1-6135-4146-be60-3ebdf399abd9,1695845147837931196,2.288818,-5.0354,-23.347855,-0.094238,0.022949,0.992676,4.369961718844262,1.3253139120546629,-113.69307695687347,0.5468183755874634,0.03823744133114815,0.011173487640917301,-0.8363029956817627
d8025493-41a0-4331-b7f4-900253c028e8,236cefd1-6135-4146-be60-3ebdf399abd9,1695845147841778196,2.164841,-5.094528,-23.46611,-0.09668,0.028809,1.001465,4.354488485534271,1.3281442722677799,-113.78477679993838,0.5461511015892029,0.03814685344696045,0.011048458516597748,-0.8367446660995483
d8025493-41a0-4331-b7f4-900253c028e8,236cefd1-6135-4146-be60-3ebdf399abd9,1695845147845625196,2.349854,-5.340576,-23.588181,-0.089844,0.032227,0.994141,4.336673379542211,1.3325280771265786,-113.87676277773585,0.5454819202423096,0.038046397268772125,0.010900984518229961,-0.8371875882148743
d8025493-41a0-4331-b7f4-900253c028e8,236cefd1-6135-4146-be60-3ebdf399abd9,1695845147849472196,2.653122,-5.460739,-24.076462,-0.100098,0.02002,0.994141,4.320666041554345,1.3354448830009282,-113.95209966118519,0.544933557510376,0.037950411438941956,0.0107785165309906,-0.8375505805015564
d8025493-41a0-4331-b7f4-900253c028e8,236cefd1-6135-4146-be60-3ebdf399abd9,1695845147853319196,2.716064,-5.523682,-24.076462,-0.103516,0.023438,0.994629,4.305195610326473,1.3393816139413302,-114.02357087749459,0.5444133877754211,0.03786268085241318,0.010652543045580387,-0.8378943204879761
d8025493-41a0-4331-b7f4-900253c028e8,236cefd1-6135-4146-be60-3ebdf399abd9,1695845147857166196,2.655029,-5.645752,-24.625778,-0.095703,0.015625,0.993652,4.287636783209789,1.34120297747405,-114.09648624355063,0.5438821315765381,0.03774964436888695,0.010531780309975147,-0.8382459282875061
d8025493-41a0-4331-b7f4-900253c028e8,236cefd1-6135-4146-be60-3ebdf399abd9,1695845147861013196,2.716064,-5.767822,-24.690628,-0.082031,0.006348,0.996582,4.266620194737768,1.3412747949139145,-114.1693690434618,0.5433508157730103,0.03760287165641785,0.010407589375972748,-0.8385985493659973
d8025493-41a0-4331-b7f4-900253c028e8,236cefd1-6135-4146-be60-3ebdf399abd9,1695845147864860196,2.775192,-6.315231,-25.178909,-0.071289,0.011719,0.992676,4.24107752701405,1.3426839756385085,-114.2447215222038,0.5428018569946289,0.03742936998605728,0.010251547209918499,-0.8389636874198914
d8025493-41a0-4331-b7f4-900253c028e8,236cefd1-6135-4146-be60-3ebdf399abd9,1695845147868707196,2.958298,-6.132126,-25.114059,-0.093262,0.015137,0.993652,4.221163125092578,1.3456806297218857,-114.3199662336523,0.5422532558441162,0.03730439394712448,0.010110771283507347,-0.8393256664276123
d8025493-41a0-4331-b7f4-900253c028e8,236cefd1-6135-4146-be60-3ebdf399abd9,1695845147872554196,3.02124,-6.134033,-25.178909,-0.083008,0.009277,1.001953,4.198991734478722,1.347639891905766,-114.39536769824494,0.5417032241821289,0.0371578224003315,0.009967047721147537,-0.8396889567375183
d8025493-41a0-4331-b7f4-900253c028e8,236cefd1-6135-4146-be60-3ebdf399abd9,1695845147876401196,3.143311,-6.317139,-25.297165,-0.083496,0.015137,1.004395,4.176190923975595,1.35138499496142,-114.49219770469328,0.540996253490448,0.037016719579696655,0.009800528176128864,-0.8401528000831604
d8025493-41a0-4331-b7f4-900253c028e8,236cefd1-6135-4146-be60-3ebdf399abd9,1695845147880248196,3.141403,-6.437302,-25.785446,-0.097656,0.009277,1.000977,4.156112394993139,1.3537490943115276,-114.5952356209542,0.5402427911758423,0.03688935190439224,0.009655226953327656,-0.8406447768211365
d8025493-41a0-4331-b7f4-900253c028e8,236cefd1-6135-4146-be60-3ebdf399abd9,1695845147884095196,3.509521,-6.134033,-25.850296,-0.079102,0.023926,1.003906,4.133346901329936,1.360893794844624,-114.69916444017909,0.5394835472106934,0.03676457703113556,0.009462115354835987,-0.8411398530006409
d8025493-41a0-4331-b7f4-900253c028e8,236cefd1-6135-4146-be60-3ebdf399abd9,1695845147887942196,3.509521,-5.886078,-26.155472,-0.083984,0.027344,1.007812,4.112851053198143,1.3686617808370745,-114.79609439795406,0.5387751460075378,0.03665851429104805,0.009277567267417908,-0.8416004776954651
d8025493-41a0-4331-b7f4-900253c028e8,236cefd1-6135-4146-be60-3ebdf399abd9,1695845147891789196,3.875732,-5.828857,-26.155472,-0.077148,0.015137,0.997559,4.091389111679402,1.3754444613544667,-114.89128549045046,0.5380789637565613,0.036540307104587555,0.009096466936171055,-0.8420528769493103
d8025493-41a0-4331-b7f4-900253c028e8,236cefd1-6135-4146-be60-3ebdf399abd9,1695845147895636196,4.240036,-5.70488,-26.273727,-0.086914,0.013672,0.988769,4.072816056594886,1.3835240416639785,-114.9866443157822,0.5373811721801758,0.03644914925098419,0.008919522166252136,-0.8425042033195496
d8025493-41a0-4331-b7f4-900253c028e8,236cefd1-6135-4146-be60-3ebdf399abd9,1695845147899483196,4.911423,-5.094528,-26.517868,-0.092285,0.021973,0.992187,4.058122392289554,1.396233578213826,-115.08409245455869,0.5366682410240173,0.03640807420015335,0.00872616283595562,-0.8429623246192932
d8025493-41a0-4331-b7f4-900253c028e8,236cefd1-6135-4146-be60-3ebdf399abd9,1695845147903330196,4.974365,-4.974365,-26.884079,-0.075684,0.016602,1.005371,4.040292375524034,1.4078481599423243,-115.18304720480218,0.5359438061714172,0.03633860871195793,0.008525795303285122,-0.8434281349182129
d8025493-41a0-4331-b7f4-900253c028e8,236cefd1-6135-4146-be60-3ebdf399abd9,1695845147907177196,5.279541,-4.852295,-26.945114,-0.075684,0.022949,0.984375,4.0234120429611036,1.4222525777852224,-115.28217781635837,0.5352181196212769,0.03628884255886078,0.008309376426041126,-0.8438931107521057
d8025493-41a0-4331-b7f4-900253c028e8,236cefd1-6135-4146-be60-3ebdf399abd9,1695845147911024196,5.582809,-4.606247,-27.31514,-0.076172,0.02832,0.995605,4.007610508769734,1.438968458977169,-115.38167863229246,0.534489631652832,0.03625747188925743,0.00808092299848795,-0.8443582653999329
d8025493-41a0-4331-b7f4-900253c028e8,236cefd1-6135-4146-be60-3ebdf399abd9,1695845147914871196,5.828857,-4.364014,-27.067184,-0.079102,-0.0,0.994629,3.9936883198121045,1.4506320984399248,-115.47973508149475,0.5337702035903931,0.03621598705649376,0.007899007759988308,-0.8448167443275452
d8025493-41a0-4331-b7f4-900253c028e8,236cefd1-6135-4146-be60-3ebdf399abd9,1695845147918718196,5.70488,-4.117966,-27.555466,-0.068359,0.01123,0.991211,3.978667195391046,1.46406291826264,-115.57952860032051,0.5330379605293274,0.036174435168504715,0.007698465138673782,-0.8452825546264648
d8025493-41a0-4331-b7f4-900253c028e8,236cefd1-6135-4146-be60-3ebdf399abd9,1695845147922565196,5.889893,-4.547119,-27.37236,-0.070312,0.009277,0.980957,3.9624062262292115,1.4779664812142137,-115.67833110605437,0.5323127508163452,0.0361255407333374,0.00748906284570694,-0.8457434177398682
d8025493-41a0-4331-b7f4-900253c028e8,236cefd1-6135-4146-be60-3ebdf399abd9,1695845147926412196,6.072998,-4.180908,-27.982712,-0.066406,0.029785,0.984863,3.9469974989998846,1.4968890401763397,-115.77764894868359,0.5315842032432556,0.036105889827013016,0.007246457971632481,-0.8462045192718506
d8025493-41a0-4331-b7f4-900253c028e8,236cefd1-6135-4146-be60-3ebdf399abd9,1695845147930259196,5.828857,-4.238129,-28.108597,-0.0625,0.018555,0.975098,3.930737383388465,1.5122974260545585,-115.87677254977109,0.5308560132980347,0.03606328368186951,0.007025986909866333,-0.8466652035713196
d8025493-41a0-4331-b7f4-900253c028e8,236cefd1-6135-4146-be60-3ebdf399abd9,1695845147930426196,5.887985,-4.240036,-28.043747,-0.05957,0.016602,0.988281,3.913719391258852,1.5274730101884249,-115.97531080496861,0.5301316976547241,0.036013610661029816,0.006803994067013264,-0.847122848033905
d8025493-41a0-4331-b7f4-900253c028e8,236cefd1-6135-4146-be60-3ebdf399abd9,1695845147930593196,6.134033,-4.238129,-28.348923,-0.041992,0.017578,0.974609,3.89323747506193,1.5438971533997092,-116.08251969117067,0.5293432474136353,0.03594421222805977,0.0065541258081793785,-0.8476206064224243
d8025493-41a0-4331-b7f4-900253c028e8,236cefd1-6135-4146-be60-3ebdf399abd9,1695845147930760196,6.01387,-3.93486,-28.654099,-0.058594,0.014648,0.976074,3.877791161651239,1.5590350075545445,-116.19236149766732,0.5285342335700989,0.0359058752655983,0.00633632205426693,-0.848128616809845
d8025493-41a0-4331-b7f4-900253c028e8,236cefd1-6135-4146-be60-3ebdf399abd9,1695845147930927196,5.950928,-4.180908,-28.654099,-0.050293,0.012695,0.991211,3.8593418391916474,1.5733788536438242,-116.30216638763423,0.5277249813079834,0.03584125638008118,0.00611066073179245,-0.8486367464065552
d8025493-41a0-4331-b7f4-900253c028e8,236cefd1-6135-4146-be60-3ebdf399abd9,1695845147931094196,5.525589,-3.81279,-28.779984,-0.054687,0.004883,0.996582,3.8435760225447004,1.5840621867035543,-116.40172325278729,0.5269902944564819,0.03577879071235657,0.00592780951410532,-0.8490971326828003
d8025493-41a0-4331-b7f4-900253c028e8,236cefd1-6135-4146-be60-3ebdf399abd9,1695845147931261196,5.462646,-3.566742,-29.085159,-0.050293,0.022949,0.989258,3.8280789512664017,1.5983625751068113,-116.5002412931449,0.5262635350227356,0.03573455661535263,0.005719795823097229,-0.8495510220527649
d8025493-41a0-4331-b7f4-900253c028e8,236cefd1-6135-4146-be60-3ebdf399abd9,1695845147931428196,5.523682,-3.692627,-29.573441,-0.049805,0.006348,0.97998,3.8122235828832407,1.6092271664361129,-116.60024723898452,0.5255246758460999,0.03567167744040489,0.00553525798022747,-0.8500121831893921
d8025493-41a0-4331-b7f4-900253c028e8,236cefd1-6135-4146-be60-3ebdf399abd9,1695845147931595196,5.462646,-3.078461,-29.630661,-0.054687,0.009277,0.97998,3.8001749194274455,1.6204346035418982,-116.71923641854255,0.5246443748474121,0.0356392078101635,0.0053598154336214066,-0.8505582809448242
d8025493-41a0-4331-b7f4-900253c028e8,236cefd1-6135-4146-be60-3ebdf399abd9,1695845147931762196,5.340576,-2.838135,-29.996872,-0.048828,0.01709,0.98584,3.78795474355175,1.6326488188814172,-116.84320963246017,0.5237266421318054,0.03560996055603027,0.005174632184207439,-0.8511260747909546
d8025493-41a0-4331-b7f4-900253c028e8,236cefd1-6135-4146-be60-3ebdf399abd9,1695845147931929196,5.279541,-3.02124,-30.244827,-0.057129,0.028809,0.994629,3.776715377424776,1.6469920575013617,-116.96869153812052,0.5227974057197571,0.03559740260243416,0.004977689124643803,-0.8516988158226013
d8025493-41a0-4331-b7f4-900253c028e8,236cefd1-6135-4146-be60-3ebdf399abd9,1695845147932096196,5.340576,-2.655029,-30.118942,-0.062012,0.019531,0.979004,3.768404735314204,1.6596928373078466,-117.07839950367547,0.5219843983650208,0.035598110407590866,0.004811241291463375,-0.8521982431411743
d8025493-41a0-4331-b7f4-900253c028e8,236cefd1-6135-4146-be60-3ebdf399abd9,1695845147932263196,4.974365,-2.227783,-30.790329,-0.044434,0.022949,0.976074,3.7583363172636566,1.6713436879010837,-117.18756721550048,0.5211747884750366,0.03558066487312317,0.0046447878703475,-0.8526952862739563
d8025493-41a0-4331-b7f4-900253c028e8,236cefd1-6135-4146-be60-3ebdf399abd9,1695845147932430196,5.037308,-1.981735,-30.427933,-0.057617,0.01416,0.981934,3.7521223649674496,1.6813967763367401,-117.29438539468329,0.5203817486763,0.03558429330587387,0.004508506506681442,-0.8531800508499146
d8025493-41a0-4331-b7f4-900253c028e8,236cefd1-6135-4146-be60-3ebdf399abd9,1695845147932597196,5.216599,-1.859665,-30.546188,-0.062012,0.022949,0.987793,3.7473739037250846,1.6940532977784653,-117.40144335609865,0.5195868611335754,0.03561041131615639,0.00435938686132431,-0.8536640405654907
d8025493-41a0-4331-b7f4-900253c028e8,236cefd1-6135-4146-be60-3ebdf399abd9,1695845147932764196,5.157471,-1.613617,-30.916214,-0.050781,0.025879,0.988769,3.7413428638155724,1.7069349412909374,-117.51056104520642,0.5187762379646301,0.0356278158724308,0.004202096723020077,-0.8541569709777832
d8025493-41a0-4331-b7f4-900253c028e8,236cefd1-6135-4146-be60-3ebdf399abd9,1695845147932931196,5.216599,-1.554489,-30.851364,-0.049805,0.024414,0.979492,3.7355328962432464,1.7198109129032075,-117.61936307068069,0.5179674625396729,0.03564656898379326,0.004045918583869934,-0.854647696018219
d8025493-41a0-4331-b7f4-900253c028e8,236cefd1-6135-4146-be60-3ebdf399abd9,1695845147933098196,5.096436,-1.739502,-30.668259,-0.055176,0.040039,0.97998,3.730117153255409,1.7355537065994715,-117.72715439092421,0.517166256904602,0.035680875182151794,0.0038703931495547295,-0.8551321029663086
d8025493-41a0-4331-b7f4-900253c028e8,236cefd1-6135-4146-be60-3ebdf399abd9,1695845147933265196,5.584717,-1.739502,-30.427933,-0.064941,0.019531,0.970703,3.7269695765606325,1.749057867198999,-117.8347558510217,0.5163655281066895,0.03572174161672592,0.0037218118086457253,-0.8556147813796997
d8025493-41a0-4331-b7f4-900253c028e8,236cefd1-6135-4146-be60-3ebdf399abd9,1695845147933432196,5.765915,-1.981735,-30.179977,-0.062988,0.017578,0.984375,3.7221655280868062,1.7628705997903849,-117.94123902594221,0.5155727863311768,0.0357513390481472,0.0035637477412819862,-0.8560921549797058
d8025493-41a0-4331-b7f4-900253c028e8,236cefd1-6135-4146-be60-3ebdf399abd9,1695845147933599196,5.765915,-2.470016,-29.996872,-0.057129,0.023438,0.986328,3.7139541398609044,1.7779585539077292,-118.04665143723966,0.5147879123687744,0.03576089069247246,0.0033811209723353386,-0.8565647006034851
d8025493-41a0-4331-b7f4-900253c028e8,236cefd1-6135-4146-be60-3ebdf399abd9,1695845147933766196,6.254196,-2.347946,-29.573441,-0.068848,0.020996,0.987305,3.7088124380245717,1.7947118019421766,-118.15909009095114,0.5139502286911011,0.0358007475733757,0.003197590820491314,-0.8570666313171387
d8025493-41a0-4331-b7f4-900253c028e8,236cefd1-6135-4146-be60-3ebdf399abd9,1695845147933933196,6.193161,-2.470016,-29.085159,-0.055176,0.027832,0.988769,3.700153587672657,1.8127631437547074,-118.27076173361482,0.5131180882453918,0.03581973910331726,0.002988755702972412,-0.8575650453567505
d8025493-41a0-4331-b7f4-900253c028e8,236cefd1-6135-4146-be60-3ebdf399abd9,1695845147934100196,6.439209,-2.89917,-28.779984,-0.047363,0.022461,0.986816,3.6879979781725396,1.8307699594841684,-118.38116365067793,0.5122950077056885,0.03581194579601288,0.002764984965324402,-0.8580580949783325
d8025493-41a0-4331-b7f4-900253c028e8,236cefd1-6135-4146-be60-3ebdf399abd9,1695845147938649196,6.378174,-2.89917,-28.409958,-0.051758,0.024902,0.989258,3.6767926969325346,1.8490836006675198,-118.48889945890609,0.5114914178848267,0.03581218048930168,0.002544005401432514,-0.858538031578064
d8025493-41a0-4331-b7f4-900253c028e8,236cefd1-6135-4146-be60-3ebdf399abd9,1695845147943198196,6.317139,-3.02124,-27.677536,-0.049316,0.020508,0.980957,3.6646203958675976,1.8664000631164264,-118.59296382787169,0.5107147097587585,0.0358002707362175,0.0023273443803191185,-0.8590013980865479
d8025493-41a0-4331-b7f4-900253c028e8,236cefd1-6135-4146-be60-3ebdf399abd9,1695845147947747196,5.830765,-3.446579,-27.37236,-0.052734,0.023438,0.975586,3.6514313381087034,1.8823121972106687,-118.6952925538906,0.5099503397941589,0.035774100571870804,0.002117263153195381,-0.8594570159912109
d8025493-41a0-4331-b7f4-900253c028e8,236cefd1-6135-4146-be60-3ebdf399abd9,1695845147952296196,6.317139,-3.387451,-26.945114,-0.049316,0.041016,0.973633,3.6378189099418083,1.9042625616022204,-118.79441363397656,0.5092105865478516,0.03577113896608353,0.0018610106781125069,-0.8598962426185608
d8025493-41a0-4331-b7f4-900253c028e8,236cefd1-6135-4146-be60-3ebdf399abd9,1695845147956845196,5.828857,-3.326416,-26.643753,-0.046387,0.020996,0.975586,3.623865410715939,1.9197652688185949,-118.89156573970533,0.5084841251373291,0.03573661297559738,0.0016523031517863274,-0.8603278994560242
d8025493-41a0-4331-b7f4-900253c028e8,236cefd1-6135-4146-be60-3ebdf399abd9,1695845147961394196,5.94902,-3.141403,-26.029587,-0.04834,0.025879,0.974121,3.611138037689727,1.937008244431954,-118.98580322655663,0.5077794194221497,0.03571862727403641,0.001436915248632431,-0.8607451319694519
d8025493-41a0-4331-b7f4-900253c028e8,236cefd1-6135-4146-be60-3ebdf399abd9,1695845147965943196,5.828857,-2.655029,-26.212692,-0.047363,0.041992,0.979004,3.600371998811097,1.9570855470869453,-119.08052255810303,0.5070711374282837,0.03572757542133331,0.0012087728828191757,-0.861162543296814
d8025493-41a0-4331-b7f4-900253c028e8,236cefd1-6135-4146-be60-3ebdf399abd9,1695845147970492196,5.765915,-2.958298,-25.541306,-0.047363,0.018555,0.972168,3.5883172573986224,1.972008774075529,-119.18244632589449,0.5063074827194214,0.035703811794519424,0.0010114535689353943,-0.8616129755973816
d8025493-41a0-4331-b7f4-900253c028e8,236cefd1-6135-4146-be60-3ebdf399abd9,1695845147975041196,5.462646,-2.590179,-24.995804,-0.04541,0.033691,0.981445,3.577350857511075,1.9889187208224421,-119.28368767175029,0.5055488348007202,0.03569665551185608,0.0008042352274060249,-0.8620588183403015
d8025493-41a0-4331-b7f4-900253c028e8,236cefd1-6135-4146-be60-3ebdf399abd9,1695845147979590196,4.852295,-2.773285,-24.930954,-0.04541,0.027832,0.966797,3.5658307719654805,2.0019924932508117,-119.38466373664372,0.5047911405563354,0.03566812723875046,0.0006235670298337936,-0.8625040650367737
d8025493-41a0-4331-b7f4-900253c028e8,236cefd1-6135-4146-be60-3ebdf399abd9,1695845147984139196,4.91333,-2.410889,-24.507523,-0.050781,0.033691,0.960937,3.5571430033887617,2.01673417985279,-119.48226972903487,0.5040586590766907,0.03566794469952583,0.00044388696551322937,-0.8629324436187744
d8025493-41a0-4331-b7f4-900253c028e8,236cefd1-6135-4146-be60-3ebdf399abd9,1695845147988688196,4.240036,-2.164841,-24.019241,-0.063477,0.038574,0.969238,3.552134842689969,2.029636384038149,-119.57712445416406,0.5033462047576904,0.03568713739514351,0.0002950960770249367,-0.8633475303649902
d8025493-41a0-4331-b7f4-900253c028e8,236cefd1-6135-4146-be60-3ebdf399abd9,1695845147993237196,3.87764,-1.79863,-23.46611,-0.047363,0.023926,0.962891,3.545273742269925,2.0379351660197456,-119.6690791413895,0.5026545524597168,0.03567197918891907,0.00017376895993947983,-0.8637510538101196
d8025493-41a0-4331-b7f4-900253c028e8,236cefd1-6135-4146-be60-3ebdf399abd9,1695845147997786196,3.389359,-1.79863,-23.042679,-0.059082,0.024902,0.987793,3.5405885819399345,2.0442186393918433,-119.75889284441706,0.5019783973693848,0.03566424548625946,7.787160575389862e-05,-0.864144504070282
d8025493-41a0-4331-b7f4-900253c028e8,236cefd1-6135-4146-be60-3ebdf399abd9,1695845148002335196,3.204346,-1.556396,-22.611618,-0.049316,0.02832,0.97168,3.5350171414783076,2.050677446946492,-119.84650417253778,0.5013185739517212,0.03565046191215515,-2.252962440252304e-05,-0.8645280003547668
d8025493-41a0-4331-b7f4-900253c028e8,236cefd1-6135-4146-be60-3ebdf399abd9,1695845148006884196,2.89917,-1.373291,-21.883011,-0.058594,0.013184,0.978027,3.532080296530579,2.052656778824013,-119.93072176937876,0.5006833672523499,0.03563690185546875,-7.65109434723854e-05,-0.8648965954780579
d8025493-41a0-4331-b7f4-900253c028e8,236cefd1-6135-4146-be60-3ebdf399abd9,1695845148011433196,2.532959,-1.373291,-21.45195,-0.067871,0.0625,0.98584,3.530992605429539,2.0637771909058706,-120.01052811514556,0.5000826120376587,0.03567706421017647,-0.0001900969073176384,-0.8652424216270447
d8025493-41a0-4331-b7f4-900253c028e8,236cefd1-6135-4146-be60-3ebdf399abd9,1695845148015982196,2.044678,-1.251221,-20.841599,-0.039551,0.033691,0.974121,3.524386751475261,2.066756870641899,-120.08668127074255,0.49950793385505676,0.03563999757170677,-0.0002651223912835121,-0.8655758500099182
d8025493-41a0-4331-b7f4-900253c028e8,236cefd1-6135-4146-be60-3ebdf399abd9,1695845148020531196,2.717972,-1.310349,-20.048141,-0.060547,0.030762,0.992676,3.521719582904966,2.0720824127815933,-120.15943592343518,0.49895909428596497,0.03564281016588211,-0.00033963192254304886,-0.8658921718597412
d8025493-41a0-4331-b7f4-900253c028e8,236cefd1-6135-4146-be60-3ebdf399abd9,1695845148025080196,2.471924,-1.068115,-19.376755,-0.04248,0.023926,0.971191,3.516407231849357,2.0752024710963415,-120.22403482689813,0.49847134947776794,0.03561600297689438,-0.0004064328968524933,-0.8661741018295288
d8025493-41a0-4331-b7f4-900253c028e8,236cefd1-6135-4146-be60-3ebdf399abd9,1695845148029629196,2.349854,-1.125336,-18.583298,-0.046875,0.03418,0.990234,3.5114179671266856,2.0800721377347564,-120.28403813953024,0.49801844358444214,0.03559918701648712,-0.00048360787332057953,-0.8664352893829346
d8025493-41a0-4331-b7f4-900253c028e8,236cefd1-6135-4146-be60-3ebdf399abd9,1695845148034178196,2.410889,-1.373291,-18.217087,-0.041016,0.037598,0.974609,3.504272044504536,2.086161056240979,-120.34208984547959,0.497580349445343,0.035571277141571045,-0.000578753650188446,-0.8666880130767822
d8025493-41a0-4331-b7f4-900253c028e8,236cefd1-6135-4146-be60-3ebdf399abd9,1695845148038727196,2.532959,-1.125336,-17.606735,-0.050781,0.03418,0.97998,3.5001762410637762,2.092142085461438,-120.39740495640089,0.4971628189086914,0.03556590527296066,-0.0006589721888303757,-0.8669277429580688
d8025493-41a0-4331-b7f4-900253c028e8,236cefd1-6135-4146-be60-3ebdf399abd9,1695845148043276196,2.593994,-1.434326,-16.874313,-0.04834,0.03418,0.991699,3.4939747173995177,2.098475988975206,-120.47187559398718,0.4966002404689789,0.03554593026638031,-0.0007569277659058571,-0.8672508597373962
d8025493-41a0-4331-b7f4-900253c028e8,236cefd1-6135-4146-be60-3ebdf399abd9,1695845148047825196,2.532959,-1.373291,-15.775681,-0.048828,0.035156,0.983887,3.4881016813880312,2.105094108207739,-120.54600017865529,0.49604010581970215,0.03552956134080887,-0.0008554812520742416,-0.8675719499588013
d8025493-41a0-4331-b7f4-900253c028e8,236cefd1-6135-4146-be60-3ebdf399abd9,1695845148317675196,11.016846,-8.270264,16.511917,0.010254,0.091309,0.967773,1.4351390347551596,3.680906256876871,-118.40135362975957,0.5120739340782166,0.027195196598768234,-0.021175570785999298,-0.8582495450973511
d8025493-41a0-4331-b7f4-900253c028e8,236cefd1-6135-4146-be60-3ebdf399abd9,1695845148381521196,10.5896,-7.839203,16.389847,0.013184,0.088379,0.959473,1.388320888146376,3.734587632717786,-118.31680843839943,0.5126954317092896,0.027100175619125366,-0.021767040714621544,-0.8578665852546692
d8025493-41a0-4331-b7f4-900253c028e8,236cefd1-6135-4146-be60-3ebdf399abd9,1695845148404519196,9.918213,-7.598877,16.084671,0.017578,0.084473,0.949219,1.3418209616058336,3.784368539566131,-118.2263930276897,0.513360321521759,0.02699211984872818,-0.022326640784740448,-0.8574579358100891
d8025493-41a0-4331-b7f4-900253c028e8,236cefd1-6135-4146-be60-3ebdf399abd9,1695845148427517196,9.305954,-7.291794,15.775681,0.003906,0.07959,0.958496,1.299756097643531,3.830030439548567,-118.13603274969373,0.5140251517295837,0.02689967304468155,-0.022835712879896164,-0.8570490479469299
d8025493-41a0-4331-b7f4-900253c028e8,236cefd1-6135-4146-be60-3ebdf399abd9,1695845148450515196,8.636475,-6.622314,15.413284,0.004395,0.087891,0.941406,1.2608515070606219,3.8745484230267797,-118.04691694395406,0.5146806836128235,0.026826288551092148,-0.02332247793674469,-0.8566446900367737
d8025493-41a0-4331-b7f4-900253c028e8,236cefd1-6135-4146-be60-3ebdf399abd9,1695845148473513196,8.150101,-6.376266,15.352249,0.001465,0.083984,0.944336,1.2236748703247582,3.9158537193291902,-117.95306484508953,0.5153715014457703,0.026753142476081848,-0.023776467889547348,-0.8562191128730774
d8025493-41a0-4331-b7f4-900253c028e8,236cefd1-6135-4146-be60-3ebdf399abd9,1695845148496511196,6.864548,-5.82695,14.925003,0.009277,0.091309,0.947754,1.1873880822553686,3.9528786420198245,-117.85991311880532,0.5160569548606873,0.0266680046916008,-0.024194762110710144,-0.8557970523834229
d8025493-41a0-4331-b7f4-900253c028e8,236cefd1-6135-4146-be60-3ebdf399abd9,1695845148519509196,6.681442,-5.094528,14.863968,0.006836,0.074707,0.916504,1.1551670161981815,3.985781042733473,-117.76695011528615,0.5167415738105774,0.026595305651426315,-0.024564126506447792,-0.8553755879402161
d8025493-41a0-4331-b7f4-900253c028e8,236cefd1-6135-4146-be60-3ebdf399abd9,1695845148542507196,5.765915,-5.094528,14.310837,0.012695,0.072754,0.929687,1.121658737398982,4.013921194299507,-117.68223678613454,0.5173642039299011,0.02649034932255745,-0.024905793368816376,-0.8549925088882446
d8025493-41a0-4331-b7f4-900253c028e8,236cefd1-6135-4146-be60-3ebdf399abd9,1695845148545060196,5.094528,-4.484177,13.948441,0.01123,0.096191,0.939453,1.0912284540335846,4.043904007031523,-117.60033187579506,0.5179659128189087,0.02641656994819641,-0.025248104706406593,-0.8546203970909119
d8025493-41a0-4331-b7f4-900253c028e8,236cefd1-6135-4146-be60-3ebdf399abd9,1695845148547613196,4.302979,-4.547119,13.277054,0.01416,0.069824,0.946289,1.0602990886806254,4.064388261811338,-117.52161207171933,0.5185441970825195,0.02629592828452587,-0.025522682815790176,-0.8542651534080505
d8025493-41a0-4331-b7f4-900253c028e8,236cefd1-6135-4146-be60-3ebdf399abd9,1695845148550166196,3.324509,-4.240036,13.093948,0.007813,0.077637,0.955078,1.0317513778495722,4.082156169018265,-117.45962273837026,0.5189982056617737,0.02617736905813217,-0.025770217180252075,-0.853985607624054
d8025493-41a0-4331-b7f4-900253c028e8,236cefd1-6135-4146-be60-3ebdf399abd9,1695845148552719196,2.592087,-3.93486,12.662888,0.001953,0.075684,0.960449,0.9994117656794882,4.097704027347204,-117.40259992982416,0.5194143056869507,0.026019655168056488,-0.026019655168056488,-0.8537298440933228
d8025493-41a0-4331-b7f4-900253c028e8,236cefd1-6135-4146-be60-3ebdf399abd9,1695845148555272196,2.166748,-3.875732,12.605667,0.019043,0.067871,0.949707,0.9802125090183159,4.105786319764037,-117.34686288030699,0.5198243260383606,0.02592593804001808,-0.026154309511184692,-0.8534790277481079
d8025493-41a0-4331-b7f4-900253c028e8,236cefd1-6135-4146-be60-3ebdf399abd9,1695845148557825196,1.861572,-3.566742,12.422562,0.003906,0.069824,0.943359,0.9555871064615412,4.115465385863988,-117.29206189311294,0.5202258229255676,0.025798983871936798,-0.026325799524784088,-0.8532329201698303
d8025493-41a0-4331-b7f4-900253c028e8,236cefd1-6135-4146-be60-3ebdf399abd9,1695845148560378196,1.615524,-3.568649,12.056351,0.007813,0.073242,0.953613,0.9309589114214526,4.124409790287825,-117.22793336373435,0.5206966400146484,0.02567099966108799,-0.0264898668974638,-0.8529444932937622
d8025493-41a0-4331-b7f4-900253c028e8,236cefd1-6135-4146-be60-3ebdf399abd9,1695845148562931196,1.251221,-3.261566,11.93428,0.009766,0.078125,0.974121,0.9073477419586429,4.132415120625269,-117.16221166179201,0.5211794376373291,0.025546878576278687,-0.02664211392402649,-0.8526485562324524
d8025493-41a0-4331-b7f4-900253c028e8,236cefd1-6135-4146-be60-3ebdf399abd9,1695845148565484196,1.251221,-3.078461,11.50322,0.014648,0.067871,0.966309,0.8837207374283483,4.13824464008144,-117.09799857946642,0.521651029586792,0.025412574410438538,-0.026778727769851685,-0.8523598313331604
d8025493-41a0-4331-b7f4-900253c028e8,236cefd1-6135-4146-be60-3ebdf399abd9,1695845148568037196,0.88501,-2.773285,11.014938,0.014648,0.05957,0.967285,0.8617398603777624,4.140572671546628,-117.02505220949075,0.522188127040863,0.025276780128479004,-0.02688002772629261,-0.8520317077636719
d8025493-41a0-4331-b7f4-900253c028e8,236cefd1-6135-4146-be60-3ebdf399abd9,1695845148570590196,1.005173,-2.836227,10.526657,-0.006836,0.063477,0.963379,0.8442786543139132,4.1443066653891725,-116.95254816449315,0.522722601890564,0.02518101967871189,-0.026971442624926567,-0.8517038822174072
d8025493-41a0-4331-b7f4-900253c028e8,236cefd1-6135-4146-be60-3ebdf399abd9,1695845148573143196,0.762939,-2.716064,10.164261,0.008301,0.062012,0.972656,0.8242809205729333,4.146448692828405,-116.8811364361944,0.5232483148574829,0.025059018284082413,-0.027062978595495224,-0.8513817191123962
d8025493-41a0-4331-b7f4-900253c028e8,236cefd1-6135-4146-be60-3ebdf399abd9,1695845148576581196,0.455856,-2.04277,10.038376,-0.000977,0.060547,0.980957,0.8092971963084822,4.146784674900169,-116.8194331751377,0.5237030982971191,0.024963833391666412,-0.027120456099510193,-0.8511030077934265
d8025493-41a0-4331-b7f4-900253c028e8,236cefd1-6135-4146-be60-3ebdf399abd9,1695845148580019196,0.213623,-2.227783,9.79805,0.000488,0.075195,0.967285,0.7934333280240442,4.149396648136357,-116.76070348893094,0.524135172367096,0.02487187832593918,-0.02719961851835251,-0.8508371710777283
d8025493-41a0-4331-b7f4-900253c028e8,236cefd1-6135-4146-be60-3ebdf399abd9,1695845148583457196,-0.274658,-2.227783,9.187698,0.000488,0.060059,0.979004,0.7776755515203675,4.146389758960472,-116.70513554036845,0.5245442986488342,0.024754345417022705,-0.027237359434366226,-0.8505872488021851
d8025493-41a0-4331-b7f4-900253c028e8,236cefd1-6135-4146-be60-3ebdf399abd9,1695845148586895196,-0.762939,-2.044678,8.943558,0.004883,0.0625,0.951172,0.7621296118647088,4.1421696199419396,-116.64071914475507,0.5250191688537598,0.02463497966527939,-0.027263343334197998,-0.8502967953681946
d8025493-41a0-4331-b7f4-900253c028e8,236cefd1-6135-4146-be60-3ebdf399abd9,1695845148590333196,-1.436234,-2.164841,8.756638,0.015137,0.056152,0.974121,0.7438151007223858,4.133300173354411,-116.57510585763077,0.525502622127533,0.024474091827869415,-0.02726741135120392,-0.850002646446228
d8025493-41a0-4331-b7f4-900253c028e8,236cefd1-6135-4146-be60-3ebdf399abd9,1695845148593771196,-1.98555,-1.859665,8.268356,-0.004883,0.054199,0.986328,0.7313845758078357,4.121410771695836,-116.51174287390717,0.525970995426178,0.024342460557818413,-0.02722274325788021,-0.8497180938720703
d8025493-41a0-4331-b7f4-900253c028e8,236cefd1-6135-4146-be60-3ebdf399abd9,1695845148597209196,-2.532959,-1.613617,8.516312,0.008789,0.054199,0.983887,0.716986493924207,4.107228009300687,-116.4565023173118,0.5263788104057312,0.024183746427297592,-0.02717197686433792,-0.8494716882705688
d8025493-41a0-4331-b7f4-900253c028e8,236cefd1-6135-4146-be60-3ebdf399abd9,1695845148600647196,-3.02124,-1.678467,7.661819,0.001953,0.0625,0.983887,0.7042142167822294,4.09268988433514,-116.40716919017564,0.5267431735992432,0.024034006521105766,-0.027112500742077827,-0.849251925945282
d8025493-41a0-4331-b7f4-900253c028e8,236cefd1-6135-4146-be60-3ebdf399abd9,1695845148604085196,-3.509521,-1.613617,7.722855,-0.010254,0.06543,0.979492,0.6943025962330214,4.076798059769954,-116.35830578322897,0.5271047949790955,0.023899078369140625,-0.027030063793063164,-0.8490340113639832
d8025493-41a0-4331-b7f4-900253c028e8,236cefd1-6135-4146-be60-3ebdf399abd9,1695845148607523196,-4.180908,-1.678467,7.413864,-0.012695,0.055176,0.989746,0.6847966634687778,4.055634316731372,-116.31109152902663,0.5274548530578613,0.023742452263832092,-0.026907160878181458,-0.8488248586654663
d8025493-41a0-4331-b7f4-900253c028e8,236cefd1-6135-4146-be60-3ebdf399abd9,1695845148610961196,-4.547119,-1.373291,7.295609,0.006348,0.056641,0.983887,0.6726519308851852,4.033335524750307,-116.25962372576925,0.5278358459472656,0.023561954498291016,-0.02678726240992546,-0.8485968112945557
d8025493-41a0-4331-b7f4-900253c028e8,236cefd1-6135-4146-be60-3ebdf399abd9,1695845148614399196,-4.854202,-1.310349,6.868362,0.00293,0.057617,1.003906,0.6616238853234763,4.009675011744566,-116.2093929181177,0.5282080173492432,0.023383058607578278,-0.02665255218744278,-0.8483743667602539
d8025493-41a0-4331-b7f4-900253c028e8,236cefd1-6135-4146-be60-3ebdf399abd9,1695845148617837196,-4.732132,-1.005173,6.746292,-0.003418,0.060547,1.003906,0.653404183586033,3.9872567919298803,-116.15986075269623,0.5285754203796387,0.02323039621114731,-0.026514386758208275,-0.8481540679931641
d8025493-41a0-4331-b7f4-900253c028e8,236cefd1-6135-4146-be60-3ebdf399abd9,1695845148621275196,-4.610062,-0.822067,6.502151,-0.003418,0.062988,1.007324,0.6460362401537016,3.965929402789821,-116.12494516617987,0.5288346409797668,0.023085586726665497,-0.026383444666862488,-0.8480005264282227
d8025493-41a0-4331-b7f4-900253c028e8,236cefd1-6135-4146-be60-3ebdf399abd9,1695845148624734196,-4.852295,-0.396729,6.380081,0.001465,0.065918,1.014648,0.6395855923598336,3.944121646089262,-116.09336447533435,0.5290694236755371,0.022944506257772446,-0.026245471090078354,-0.8478621244430542
d8025493-41a0-4331-b7f4-900253c028e8,236cefd1-6135-4146-be60-3ebdf399abd9,1695845148628193196,-4.915237,-0.577927,6.258011,-0.019531,0.062012,1.003418,0.6370186598829175,3.9214365342673365,-116.06336004935355,0.5292934775352478,0.022827669978141785,-0.026083458214998245,-0.8477304577827454
d8025493-41a0-4331-b7f4-900253c028e8,236cefd1-6135-4146-be60-3ebdf399abd9,1695845148631652196,-4.669189,-0.148773,6.01387,-0.005371,0.060059,1.023926,0.6332473628266708,3.899173879432453,-116.02260549202168,0.5295966863632202,0.022706225514411926,-0.025928068906068802,-0.8475490808486938
d8025493-41a0-4331-b7f4-900253c028e8,236cefd1-6135-4146-be60-3ebdf399abd9,1695845148635111196,-4.854202,-0.02861,5.94902,-0.007812,0.04541,1.015625,0.630633828634687,3.8731397744902143,-115.98000774113663,0.529914140701294,0.022576216608285904,-0.0257391557097435,-0.8473598957061768
d8025493-41a0-4331-b7f4-900253c028e8,236cefd1-6135-4146-be60-3ebdf399abd9,1695845148638570196,-4.549026,0.276566,6.074905,-0.009277,0.065918,1.012695,0.6295991177045899,3.853035522539948,-115.9366447665222,0.5302368402481079,0.022485334426164627,-0.02558673545718193,-0.847165048122406
d8025493-41a0-4331-b7f4-900253c028e8,236cefd1-6135-4146-be60-3ebdf399abd9,1695845148642029196,-4.426956,0.337601,5.8918,-0.010254,0.062988,1.017578,0.629093115129586,3.832827299484801,-115.89545729571857,0.5305435061454773,0.02239728346467018,-0.025431595742702484,-0.8469800353050232
d8025493-41a0-4331-b7f4-900253c028e8,236cefd1-6135-4146-be60-3ebdf399abd9,1695845148645488196,-3.753662,0.701904,5.830765,-0.013672,0.052734,1.012695,0.6310201064042736,3.8134598955861594,-115.8550448652245,0.5308448076248169,0.02233082428574562,-0.025271616876125336,-0.8467977643013
d8025493-41a0-4331-b7f4-900253c028e8,236cefd1-6135-4146-be60-3ebdf399abd9,1695845148648947196,-3.753662,0.701904,5.8918,-0.017578,0.058105,1.019043,0.6337272528384243,3.7952493151044155,-115.81463518220698,0.5311460494995117,0.022275377064943314,-0.02511662058532238,-0.8466148972511292
d8025493-41a0-4331-b7f4-900253c028e8,236cefd1-6135-4146-be60-3ebdf399abd9,1695845148652406196,-3.084183,0.764847,5.765915,-0.016113,0.056152,1.015137,0.6364872766953394,3.7796502374557206,-115.76323321749646,0.531528115272522,0.022234713658690453,-0.024978581815958023,-0.8463802337646484
d8025493-41a0-4331-b7f4-900253c028e8,236cefd1-6135-4146-be60-3ebdf399abd9,1695845148655865196,-2.962112,1.436234,5.708694,-0.000977,0.052246,1.018066,0.6388675486785469,3.763762769441941,-115.70971731197272,0.531925618648529,0.022190246731042862,-0.02483980730175972,-0.8461357355117798
d8025493-41a0-4331-b7f4-900253c028e8,236cefd1-6135-4146-be60-3ebdf399abd9,1695845148659324196,-2.595901,1.008987,5.8918,-0.008301,0.056641,1.022461,0.6408294460391178,3.7504488282515527,-115.65522088739662,0.5323298573493958,0.022154726088047028,-0.024721834808588028,-0.8458858728408813
d8025493-41a0-4331-b7f4-900253c028e8,236cefd1-6135-4146-be60-3ebdf399abd9,1695845148662783196,-2.288818,1.678467,5.8918,-0.021484,0.05957,1.010254,0.648686031124567,3.7393058079153714,-115.60100000945283,0.5327329635620117,0.022172626107931137,-0.024592574685811996,-0.8456353545188904
d8025493-41a0-4331-b7f4-900253c028e8,236cefd1-6135-4146-be60-3ebdf399abd9,1695845148666242196,-1.98555,2.046585,5.277634,-0.013184,0.061035,1.020996,0.6564945112579981,3.7296673305104346,-115.55077681218533,0.53310626745224,0.022196196019649506,-0.024475403130054474,-0.8454028367996216
d8025493-41a0-4331-b7f4-900253c028e8,236cefd1-6135-4146-be60-3ebdf399abd9,1695845148669701196,-1.497269,2.534866,5.525589,-0.010742,0.038086,1.01709,0.6658214214830397,3.7172980544786984,-115.4998609398753,0.5334851741790771,0.022218307480216026,-0.02433086559176445,-0.8451673984527588
d8025493-41a0-4331-b7f4-900253c028e8,236cefd1-6135-4146-be60-3ebdf399abd9,1695845148673160196,-1.314163,2.779007,5.643845,-0.016602,0.060059,1.004395,0.6774492538561544,3.7107181217935015,-115.44865924115338,0.5338659286499023,0.02228427678346634,-0.024218235164880753,-0.8449284434318542
d8025493-41a0-4331-b7f4-900253c028e8,236cefd1-6135-4146-be60-3ebdf399abd9,1695845148676619196,-1.068115,3.387451,5.525589,-0.019043,0.055664,1.006836,0.6922442175804603,3.7042436308442745,-115.41107328326291,0.5341468453407288,0.02237112447619438,-0.024094220250844955,-0.8447521328926086
d8025493-41a0-4331-b7f4-900253c028e8,236cefd1-6135-4146-be60-3ebdf399abd9,1695845148680078196,-1.131058,3.389359,5.277634,-0.016113,0.059082,1.008301,0.7063439650919001,3.698255790932985,-115.37717047894137,0.5344003438949585,0.022454267367720604,-0.023977702483534813,-0.8445928692817688
d8025493-41a0-4331-b7f4-900253c028e8,236cefd1-6135-4146-be60-3ebdf399abd9,1695845148683537196,-1.436234,4.060745,5.220413,-0.01709,0.049316,0.998047,0.7235922748078797,3.6889898701733266,-115.34412856620497,0.5346484184265137,0.02254508063197136,-0.023822452872991562,-0.844437837600708
d8025493-41a0-4331-b7f4-900253c028e8,236cefd1-6135-4146-be60-3ebdf399abd9,1695845148686996196,-1.497269,4.549026,5.155563,-0.020996,0.065918,1.003418,0.743941983326615,3.6829728121478587,-115.29522013841085,0.5350136160850525,0.022677090018987656,-0.02367347851395607,-0.8442071676254272
d8025493-41a0-4331-b7f4-900253c028e8,236cefd1-6135-4146-be60-3ebdf399abd9,1695845148690576196,-1.131058,4.610062,5.037308,-0.014648,0.051758,1.008301,0.7632937599526215,3.6754069404971115,-115.24362542023592,0.5353984236717224,0.022794947028160095,-0.02351711317896843,-0.8439643383026123
d8025493-41a0-4331-b7f4-900253c028e8,236cefd1-6135-4146-be60-3ebdf399abd9,1695845148694156196,-1.314163,5.220413,4.484177,-0.019531,0.067383,0.998047,0.7861606042920034,3.6706417874094703,-115.19389836543752,0.5357697606086731,0.02295125275850296,-0.023365210741758347,-0.8437286615371704
d8025493-41a0-4331-b7f4-900253c028e8,236cefd1-6135-4146-be60-3ebdf399abd9,1695845148697736196,-1.190186,5.279541,4.484177,-0.016602,0.061523,1.007324,0.8119236865988095,3.6642843576645765,-115.16435137058481,0.5359931588172913,0.023117221891880035,-0.023191973567008972,-0.8435869812965393
d8025493-41a0-4331-b7f4-900253c028e8,236cefd1-6135-4146-be60-3ebdf399abd9,1695845148701316196,-1.068115,5.828857,4.301071,-0.020508,0.064941,1.004883,0.8318324886008579,3.661272474418902,-115.13943838851756,0.536180853843689,0.023254722356796265,-0.023071616888046265,-0.8434672355651855
d8025493-41a0-4331-b7f4-900253c028e8,236cefd1-6135-4146-be60-3ebdf399abd9,1695845148704896196,-0.946045,6.259918,4.365921,-0.005371,0.063477,0.998047,0.8565452185469331,3.6571931580855126,-115.11507672596811,0.5363655090332031,0.023422423750162125,-0.022920969873666763,-0.843349277973175
d8025493-41a0-4331-b7f4-900253c028e8,236cefd1-6135-4146-be60-3ebdf399abd9,1695845148708476196,-0.825882,6.502151,3.507614,-0.019531,0.055176,0.999512,0.8854735045063397,3.6518083628470075,-115.08589464697906,0.5365865230560303,0.02361593022942543,-0.02273990958929062,-0.8432081937789917
d8025493-41a0-4331-b7f4-900253c028e8,236cefd1-6135-4146-be60-3ebdf399abd9,1695845148712056196,-0.579834,6.748199,3.755569,-0.023437,0.054687,1.006348,0.915603091071434,3.6474454597488566,-115.05394921382216,0.5368279218673706,0.023823510855436325,-0.02256006933748722,-0.8430535197257996
d8025493-41a0-4331-b7f4-900253c028e8,236cefd1-6135-4146-be60-3ebdf399abd9,1695845148715636196,-0.640869,7.110596,3.694534,-0.02002,0.06543,0.986816,0.9465232289096909,3.6454406165884894,-115.02186181920969,0.5370702147483826,0.02404787763953209,-0.02239372953772545,-0.8428972363471985
d8025493-41a0-4331-b7f4-900253c028e8,236cefd1-6135-4146-be60-3ebdf399abd9,1695845148719216196,-0.337601,7.600784,3.633499,-0.015625,0.062988,0.998535,0.9785344709888903,3.6440768652471713,-114.98991111169543,0.5373115539550781,0.02428315207362175,-0.022226892411708832,-0.8427411317825317
d8025493-41a0-4331-b7f4-900253c028e8,236cefd1-6135-4146-be60-3ebdf399abd9,1695845148722796196,-0.520706,7.600784,3.145218,-0.02832,0.055664,0.994141,1.0131980416952122,3.6403937378203555,-114.95353027256823,0.5375860929489136,0.024527817964553833,-0.02202947437763214,-0.8425641059875488
d8025493-41a0-4331-b7f4-900253c028e8,236cefd1-6135-4146-be60-3ebdf399abd9,1695845148726376196,-0.274658,7.904053,3.206253,-0.023438,0.052246,0.984375,1.048170604245119,3.637165615792931,-114.91549015320992,0.5378727316856384,0.024777080863714218,-0.02183343842625618,-0.8423789143562317
d8025493-41a0-4331-b7f4-900253c028e8,236cefd1-6135-4146-be60-3ebdf399abd9,1695845148729956196,0.030518,8.087158,2.836227,-0.029785,0.062988,0.985352,1.0851800424175837,3.6375927546292353,-114.87885419536639,0.5381489992141724,0.025058068335056305,-0.021654851734638214,-0.8421987891197205
d8025493-41a0-4331-b7f4-900253c028e8,236cefd1-6135-4146-be60-3ebdf399abd9,1695845148733536196,-0.152588,8.392334,2.779007,-0.035156,0.06543,0.991699,1.1245370586740826,3.637662686381283,-114.83985835155175,0.5384429693222046,0.025354957208037376,-0.021461907774209976,-0.8420069217681885
d8025493-41a0-4331-b7f4-900253c028e8,236cefd1-6135-4146-be60-3ebdf399abd9,1695845148737116196,-0.09346,8.333206,2.531052,-0.022461,0.07373,0.994629,1.1608122308309492,3.6397369287571815,-114.80120885016619,0.5387335419654846,0.02563842386007309,-0.021298058331012726,-0.8418166041374207
d8025493-41a0-4331-b7f4-900253c028e8,236cefd1-6135-4146-be60-3ebdf399abd9,1695845148740696196,0.02861,8.455276,2.595901,-0.033203,0.071777,0.989258,1.1998453544154468,3.641991539497562,-114.76231116187427,0.5390263199806213,0.025942929089069366,-0.021122314035892487,-0.8416242599487305
d8025493-41a0-4331-b7f4-900253c028e8,236cefd1-6135-4146-be60-3ebdf399abd9,1695845148744276196,-0.337601,8.699417,2.347946,-0.042969,0.070801,0.991211,1.2419322307059861,3.6423948636088683,-114.73632375594183,0.5392248630523682,0.0262586772441864,-0.02092134952545166,-0.8414922952651978
d8025493-41a0-4331-b7f4-900253c028e8,236cefd1-6135-4146-be60-3ebdf399abd9,1695845148747856196,-0.032425,9.065628,2.531052,-0.035645,0.068359,0.979492,1.2838528225945,3.643791410609617,-114.71175436749424,0.539412796497345,0.026577524840831757,-0.020728647708892822,-0.8413665890693665
d8025493-41a0-4331-b7f4-900253c028e8,236cefd1-6135-4146-be60-3ebdf399abd9,1695845148751436196,0.09346,9.004593,2.290726,-0.033691,0.063965,0.988769,1.3249717298764827,3.644615328430743,-114.68863509922365,0.5395898818969727,0.026887448504567146,-0.02053571678698063,-0.8412479162216187
d8025493-41a0-4331-b7f4-900253c028e8,236cefd1-6135-4146-be60-3ebdf399abd9,1695845148755016196,0.030518,9.063721,2.164841,-0.03418,0.068359,0.967285,1.3664686090676177,3.64640829343121,-114.66949050937826,0.5397377014160156,0.027203919366002083,-0.020348938181996346,-0.8411474823951721
d8025493-41a0-4331-b7f4-900253c028e8,236cefd1-6135-4146-be60-3ebdf399abd9,1695845148758596196,0.091553,9.372711,2.164841,-0.040527,0.070312,0.98291,1.4104370088127651,3.6486729335922683,-114.65105865730547,0.539880633354187,0.027540558949112892,-0.020154044032096863,-0.8410494327545166
d8025493-41a0-4331-b7f4-900253c028e8,236cefd1-6135-4146-be60-3ebdf399abd9,1695845148762176196,0.02861,9.004593,2.04277,-0.055664,0.067871,0.973633,1.455991818400054,3.650257140927558,-114.63341873935921,0.5400179624557495,0.02788543328642845,-0.019946757704019547,-0.8409548997879028
d8025493-41a0-4331-b7f4-900253c028e8,236cefd1-6135-4146-be60-3ebdf399abd9,1695845148765756196,-0.274658,9.063721,1.741409,-0.02832,0.066406,0.982422,1.495782888205495,3.650039364797499,-114.60650822476896,0.5402223467826843,0.028181061148643494,-0.01975102350115776,-0.8408183455467224
d8025493-41a0-4331-b7f4-900253c028e8,236cefd1-6135-4146-be60-3ebdf399abd9,1695845148769457196,-0.337601,9.370804,1.314163,-0.042969,0.062988,0.979492,1.5400158937903088,3.648820425316521,-114.57957990753958,0.540427565574646,0.028504470363259315,-0.019526846706867218,-0.8406807780265808
d8025493-41a0-4331-b7f4-900253c028e8,236cefd1-6135-4146-be60-3ebdf399abd9,1695845148773158196,-0.825882,9.492874,1.558304,-0.043457,0.063965,0.97168,1.5847172273240395,3.6458262495503115,-114.55108058971584,0.5406443476676941,0.028823107481002808,-0.019286882132291794,-0.8405360579490662
d8025493-41a0-4331-b7f4-900253c028e8,236cefd1-6135-4146-be60-3ebdf399abd9,1695845148776859196,-1.068115,9.189606,1.497269,-0.042969,0.074219,0.973144,1.627842548170796,3.643971959611195,-114.52268219564975,0.5408599376678467,0.02913542091846466,-0.0190625861287117,-0.8403916954994202
d8025493-41a0-4331-b7f4-900253c028e8,236cefd1-6135-4146-be60-3ebdf399abd9,1695845148780560196,-1.251221,9.063721,1.008987,-0.046387,0.07666,0.984863,1.671040202673215,3.6416444083157016,-114.50677202736837,0.5409838557243347,0.02944386750459671,-0.01883752830326557,-0.840306282043457
d8025493-41a0-4331-b7f4-900253c028e8,236cefd1-6135-4146-be60-3ebdf399abd9,1695845148784261196,-1.802444,8.638382,0.947952,-0.041504,0.072266,0.979004,1.7112560721283618,3.63604754729487,-114.49301938281818,0.5410915017127991,0.029714619740843773,-0.018603036180138588,-0.8402326703071594
d8025493-41a0-4331-b7f4-900253c028e8,236cefd1-6135-4146-be60-3ebdf399abd9,1695845148787962196,-1.802444,8.455276,0.947952,-0.044922,0.068848,0.97168,1.7512796518952742,3.6298411779953974,-114.47969134935866,0.5411959290504456,0.029980961233377457,-0.018365025520324707,-0.840161144733429
d8025493-41a0-4331-b7f4-900253c028e8,236cefd1-6135-4146-be60-3ebdf399abd9,1695845148791663196,-1.924515,8.333206,0.947952,-0.027344,0.07959,0.973633,1.786812414715773,3.6254301312878194,-114.46129770722652,0.5413365960121155,0.03022359311580658,-0.01815999671816826,-0.8400663137435913
d8025493-41a0-4331-b7f4-900253c028e8,236cefd1-6135-4146-be60-3ebdf399abd9,1695845148795364196,-2.473831,8.333206,0.581741,-0.036621,0.082031,0.977051,1.8242682245089186,3.6190790098961223,-114.44357750066999,0.5414726138114929,0.030470995232462883,-0.017931751906871796,-0.839974582195282
d8025493-41a0-4331-b7f4-900253c028e8,236cefd1-6135-4146-be60-3ebdf399abd9,1695845148799065196,-3.204346,7.541656,0.09346,-0.04541,0.067383,0.976074,1.860191775185375,3.60632820868629,-114.42780270611709,0.5415942072868347,0.030676595866680145,-0.01766425371170044,-0.8398944139480591
d8025493-41a0-4331-b7f4-900253c028e8,236cefd1-6135-4146-be60-3ebdf399abd9,1695845148802766196,-3.755569,7.539749,-0.150681,-0.042969,0.060059,0.977539,1.8955016092839345,3.5895931417508278,-114.40768626827553,0.541747510433197,0.030859477818012238,-0.017369210720062256,-0.8397949934005737
d8025493-41a0-4331-b7f4-900253c028e8,236cefd1-6135-4146-be60-3ebdf399abd9,1695845148806467196,-3.755569,7.173538,-0.02861,-0.04541,0.068848,0.971191,1.929645937271069,3.5749204966607215,-114.38602202165757,0.541911780834198,0.031043684110045433,-0.017094317823648453,-0.8396878242492676
d8025493-41a0-4331-b7f4-900253c028e8,236cefd1-6135-4146-be60-3ebdf399abd9,1695845148810168196,-4.243851,7.051468,-0.211716,-0.040527,0.07959,0.966309,1.9621278473810289,3.5605461792073583,-114.36483970310702,0.5420721173286438,0.031216945499181747,-0.016829535365104675,-0.8395832777023315
d8025493-41a0-4331-b7f4-900253c028e8,236cefd1-6135-4146-be60-3ebdf399abd9,1695845148813869196,-4.426956,6.319046,-0.394821,-0.053711,0.071289,0.979492,1.9940800021163025,3.5434256788499727,-114.350885509406,0.5421793460845947,0.03137221187353134,-0.016549041494727135,-0.8395138382911682
d8025493-41a0-4331-b7f4-900253c028e8,236cefd1-6135-4146-be60-3ebdf399abd9,1695845148817570196,-4.852295,6.076813,-0.394821,-0.042969,0.067871,0.982422,2.022560450102323,3.523717445419424,-114.33803267368563,0.5422779321670532,0.031489595770835876,-0.016266271471977234,-0.839451253414154
d8025493-41a0-4331-b7f4-900253c028e8,236cefd1-6135-4146-be60-3ebdf399abd9,1695845148821271196,-4.915237,6.196976,-0.276566,-0.04541,0.062012,0.988769,2.0518660862137525,3.502492237903836,-114.32495949009247,0.5423781275749207,0.03160582482814789,-0.015968386083841324,-0.8393878936767578
d8025493-41a0-4331-b7f4-900253c028e8,236cefd1-6135-4146-be60-3ebdf399abd9,1695845148824972196,-5.157471,5.588531,-0.764847,-0.057617,0.060547,0.978516,2.0812760562011476,3.480014187429445,-114.29671832682399,0.5425893068313599,0.0317189022898674,-0.015656597912311554,-0.8392530083656311
d8025493-41a0-4331-b7f4-900253c028e8,236cefd1-6135-4146-be60-3ebdf399abd9,1695845148828673196,-5.645752,5.462646,-0.764847,-0.044434,0.064453,0.977539,2.107169314369931,3.4563591271431338,-114.26482469003403,0.5428265929222107,0.031801000237464905,-0.01535177230834961,-0.8391020894050598
d8025493-41a0-4331-b7f4-900253c028e8,236cefd1-6135-4146-be60-3ebdf399abd9,1695845148832374196,-5.586624,5.037308,-0.822067,-0.038086,0.076172,0.984375,2.1296946918710873,3.435495925906845,-114.23252846289334,0.5430662035942078,0.03187153488397598,-0.015083204954862595,-0.8389492034912109
d8025493-41a0-4331-b7f4-900253c028e8,236cefd1-6135-4146-be60-3ebdf399abd9,1695845148836075196,-5.767822,4.79126,-1.436234,-0.035156,0.062988,0.992187,2.1505203303527556,3.4108612181386033,-114.20282134003766,0.5432865023612976,0.03191129490733147,-0.014795749448239803,-0.8388102054595947
d8025493-41a0-4331-b7f4-900253c028e8,236cefd1-6135-4146-be60-3ebdf399abd9,1695845148839776196,-6.011963,4.852295,-1.310349,-0.035645,0.069336,0.999512,2.1715415748187166,3.3865538227782586,-114.19340136958128,0.5433582067489624,0.03195131942629814,-0.014515400864183903,-0.8387671113014221
d8025493-41a0-4331-b7f4-900253c028e8,236cefd1-6135-4146-be60-3ebdf399abd9,1695845148843477196,-5.94902,4.732132,-1.79863,-0.048828,0.069336,0.988769,2.195032734710261,3.3626507217946013,-114.19053090896516,0.5433821678161621,0.03201047703623772,-0.014228122308850288,-0.8387542366981506
d8025493-41a0-4331-b7f4-900253c028e8,236cefd1-6135-4146-be60-3ebdf399abd9,1695845148847178196,-6.011963,4.486084,-1.310349,-0.05127,0.068359,0.992676,2.2177328279662514,3.338390355773077,-114.18644071458496,0.543414831161499,0.032062288373708725,-0.013941631652414799,-0.8387359380722046
d8025493-41a0-4331-b7f4-900253c028e8,236cefd1-6135-4146-be60-3ebdf399abd9,1695845148850879196,-5.8918,3.87764,-1.981735,-0.043945,0.07373,0.995605,2.2362494229168233,3.3157649619975866,-114.16409146757384,0.5435805320739746,0.03209337964653969,-0.013681839220225811,-0.8386316299438477
d8025493-41a0-4331-b7f4-900253c028e8,236cefd1-6135-4146-be60-3ebdf399abd9,1695845148854580196,-6.258011,3.87764,-1.79863,-0.04834,0.057129,1.007812,2.2554881915161666,3.287912128930185,-114.1367964829814,0.5437823534011841,0.032105471938848495,-0.01337894145399332,-0.838505208492279
d8025493-41a0-4331-b7f4-900253c028e8,236cefd1-6135-4146-be60-3ebdf399abd9,1695845148858281196,-5.950928,3.509521,-1.981735,-0.051758,0.054199,1.006348,2.2738573912037054,3.2608431710959347,-114.10969789727508,0.5439825057983398,0.032114751636981964,-0.013085960410535336,-0.8383796215057373
d8025493-41a0-4331-b7f4-900253c028e8,236cefd1-6135-4146-be60-3ebdf399abd9,1695845148861982196,-6.195068,3.204346,-1.981735,-0.050293,0.072754,1.008301,2.290495351433809,3.236803598701269,-114.08905279904702,0.5441351532936096,0.03212486952543259,-0.01282518170773983,-0.8382841944694519
d8025493-41a0-4331-b7f4-900253c028e8,236cefd1-6135-4146-be60-3ebdf399abd9,1695845149007591196,-3.145218,-1.9207,5.342484,-0.017578,0.041016,1.003418,1.7647141048031243,2.3380686999705245,-113.10010297906598,0.5512903928756714,0.02409057319164276,-0.008534294553101063,-0.8339218497276306
d8025493-41a0-4331-b7f4-900253c028e8,236cefd1-6135-4146-be60-3ebdf399abd9,1695845149039410196,-2.901077,-1.493454,4.972458,-0.015137,0.041992,1.00293,1.7539333446461924,2.326308487388952,-113.05783400098768,0.551596999168396,0.023958727717399597,-0.008491704240441322,-0.8337233066558838
d8025493-41a0-4331-b7f4-900253c028e8,236cefd1-6135-4146-be60-3ebdf399abd9,1695845149071229196,-2.716064,-1.434326,5.098343,-0.031738,0.033691,1.001953,1.7469958169850304,2.313619767085338,-113.01689486139577,0.5518941283226013,0.023850243538618088,-0.00842422153800726,-0.8335304856300354
d8025493-41a0-4331-b7f4-900253c028e8,236cefd1-6135-4146-be60-3ebdf399abd9,1695845149103048196,-2.532959,-1.190186,4.854202,-0.016602,0.032715,0.993652,1.73797041765236,2.3016065802408265,-112.97738789348176,0.5521806478500366,0.023729676380753517,-0.008372090756893158,-0.8333446383476257
d8025493-41a0-4331-b7f4-900253c028e8,236cefd1-6135-4146-be60-3ebdf399abd9,1695845149122740196,-2.349854,-1.125336,4.854202,-0.00293,0.04541,0.988769,1.7263205377215305,2.293229131997091,-112.93799999044434,0.552466094493866,0.023607498034834862,-0.008359165862202644,-0.8331590294837952
d8025493-41a0-4331-b7f4-900253c028e8,236cefd1-6135-4146-be60-3ebdf399abd9,1695845149142432196,-2.471924,-0.946045,4.732132,-0.016113,0.033203,1.008301,1.7182564740070538,2.2815158983289336,-112.89456601462041,0.5527811050415039,0.023495595902204514,-0.00830394122749567,-0.8329538106918335
d8025493-41a0-4331-b7f4-900253c028e8,236cefd1-6135-4146-be60-3ebdf399abd9,1695845149162124196,-2.10762,-0.516891,4.484177,-0.019531,0.019531,0.990234,1.713015052607772,2.2685961633565626,-112.85150222528333,0.5530935525894165,0.023398321121931076,-0.008226484060287476,-0.8327498435974121
d8025493-41a0-4331-b7f4-900253c028e8,236cefd1-6135-4146-be60-3ebdf399abd9,1695845149181816196,-1.98555,-0.516891,4.12178,-0.01123,0.038086,0.986328,1.7060757394236203,2.260265238716072,-112.80993518040698,0.5533949732780457,0.023310691118240356,-0.008190955966711044,-0.832552433013916
d8025493-41a0-4331-b7f4-900253c028e8,236cefd1-6135-4146-be60-3ebdf399abd9,1695845149201508196,-2.532959,0.034332,3.938675,-0.003906,0.037598,1.004395,1.6998720304205135,2.2492909929250007,-112.78186936610834,0.5535982847213745,0.023214660584926605,-0.00813546683639288,-0.8324204683303833
d8025493-41a0-4331-b7f4-900253c028e8,236cefd1-6135-4146-be60-3ebdf399abd9,1695845149221200196,-2.290726,0.032425,4.060745,-0.007324,0.033691,0.990723,1.694519129330053,2.238701577184127,-112.7560068387862,0.5537856221199036,0.02312648668885231,-0.00807915348559618,-0.8322988748550415
d8025493-41a0-4331-b7f4-900253c028e8,236cefd1-6135-4146-be60-3ebdf399abd9,1695845149240892196,-2.410889,0.274658,3.389359,-0.007812,0.031738,0.992187,1.6904523643775684,2.227098645621349,-112.73371607127683,0.5539470911026001,0.023042481392621994,-0.008010019548237324,-0.8321943283081055
d8025493-41a0-4331-b7f4-900253c028e8,236cefd1-6135-4146-be60-3ebdf399abd9,1695845149260584196,-2.653122,-0.02861,3.572464,-0.010742,0.041016,0.987305,1.6857194156625492,2.216545946525847,-112.71083222932413,0.5541127920150757,0.022958729416131973,-0.007951647974550724,-0.8320869207382202
d8025493-41a0-4331-b7f4-900253c028e8,236cefd1-6135-4146-be60-3ebdf399abd9,1695845149263070196,-3.145218,0.459671,3.267288,-0.015625,0.036133,0.982422,1.6842704369107193,2.2028477325451026,-112.68064897293084,0.5543316602706909,0.022884095087647438,-0.007853122428059578,-0.8319441080093384
d8025493-41a0-4331-b7f4-900253c028e8,236cefd1-6135-4146-be60-3ebdf399abd9,1695845149265556196,-3.084183,0.764847,3.084183,-0.008789,0.035156,0.977539,1.682744350015976,2.189272192255048,-112.64961284040317,0.554556667804718,0.022809501737356186,-0.007755730301141739,-0.8317971229553223
d8025493-41a0-4331-b7f4-900253c028e8,236cefd1-6135-4146-be60-3ebdf399abd9,1695845149268042196,-3.267288,0.581741,2.653122,-0.015625,0.025879,0.996582,1.6818599595218515,2.172725283558416,-112.62027142038268,0.5547693371772766,0.022725027054548264,-0.0076340362429618835,-0.8316587209701538
d8025493-41a0-4331-b7f4-900253c028e8,236cefd1-6135-4146-be60-3ebdf399abd9,1695845149270528196,-3.204346,0.762939,2.290726,-0.017578,0.036621,0.984375,1.6823429056329942,2.158886734200099,-112.60498598788381,0.5548800826072693,0.02266259677708149,-0.00752820260822773,-0.831587553024292
d8025493-41a0-4331-b7f4-900253c028e8,236cefd1-6135-4146-be60-3ebdf399abd9,1695845149273014196,-3.509521,1.190186,1.802444,-0.008789,0.036621,0.97998,1.6828819593377211,2.1437470387061093,-112.59431428544654,0.5549573302268982,0.022593948990106583,-0.00741358008235693,-0.8315388560295105
d8025493-41a0-4331-b7f4-900253c028e8,236cefd1-6135-4146-be60-3ebdf399abd9,1695845149275500196,-3.570557,0.579834,1.497269,-0.012695,0.031738,0.996094,1.681572090859089,2.12716567166305,-112.58560812741845,0.5550201535224915,0.022504761815071106,-0.0072978464886546135,-0.8315003514289856
d8025493-41a0-4331-b7f4-900253c028e8,236cefd1-6135-4146-be60-3ebdf399abd9,1695845149277986196,-3.633499,1.131058,1.741409,-0.006348,0.033203,0.984375,1.6813081386518796,2.1108277199209904,-112.56522765570269,0.5551677346229553,0.022425055503845215,-0.007176541723310947,-0.8314050436019897
d8025493-41a0-4331-b7f4-900253c028e8,236cefd1-6135-4146-be60-3ebdf399abd9,1695845149280472196,-3.692627,1.010895,1.253128,-0.018066,0.032715,0.990234,1.6830984560874849,2.094067085502147,-112.54506481835291,0.5553138256072998,0.02235814929008484,-0.007042285054922104,-0.8313104510307312
d8025493-41a0-4331-b7f4-900253c028e8,236cefd1-6135-4146-be60-3ebdf399abd9,1695845149282958196,-4.060745,1.008987,0.947952,-0.01123,0.023926,0.989258,1.6834531793691594,2.073839310145436,-112.52586401877934,0.5554527640342712,0.02226393111050129,-0.006890039891004562,-0.8312214016914368
d8025493-41a0-4331-b7f4-900253c028e8,236cefd1-6135-4146-be60-3ebdf399abd9,1695845149285444196,-3.997803,1.251221,0.581741,-0.022461,0.04541,0.992187,1.687358864826808,2.0585347223870336,-112.49955816558789,0.5556434988975525,0.022219687700271606,-0.006754951551556587,-0.8310962319374084
d8025493-41a0-4331-b7f4-900253c028e8,236cefd1-6135-4146-be60-3ebdf399abd9,1695845149287930196,-3.755569,1.131058,0.211716,-0.013672,0.024414,0.996582,1.6888302557690142,2.039724803677059,-112.47317628168999,0.5558345317840576,0.0221407450735569,-0.006606249138712883,-0.8309717774391174
d8025493-41a0-4331-b7f4-900253c028e8,236cefd1-6135-4146-be60-3ebdf399abd9,1695845149290416196,-3.814697,0.88501,0.276566,-0.018555,0.038086,0.994141,1.690291939639129,2.0237095370956966,-112.44634391903648,0.5560288429260254,0.022075239568948746,-0.006477813236415386,-0.830844521522522
d8025493-41a0-4331-b7f4-900253c028e8,236cefd1-6135-4146-be60-3ebdf399abd9,1695845149292902196,-3.938675,1.131058,0.154495,-0.015137,0.034668,1.013672,1.6919677701603681,2.0063177620664954,-112.43079216337185,0.5561413168907166,0.02200392633676529,-0.006340553052723408,-0.8307721614837646
d8025493-41a0-4331-b7f4-900253c028e8,236cefd1-6135-4146-be60-3ebdf399abd9,1695845149295388196,-3.572464,0.764847,-0.150681,-0.009766,0.033203,0.999023,1.691007161297843,1.9903457980169696,-112.4188382959789,0.5562275648117065,0.021920155733823776,-0.0062270937487483025,-0.8307175040245056
d8025493-41a0-4331-b7f4-900253c028e8,236cefd1-6135-4146-be60-3ebdf399abd9,1695845149298457196,-3.450394,0.642776,-0.455856,-0.023438,0.02832,1.010254,1.6924983591428029,1.9737734061912364,-112.40888052940824,0.5562994480133057,0.02185111492872238,-0.006097775883972645,-0.8306721448898315
d8025493-41a0-4331-b7f4-900253c028e8,236cefd1-6135-4146-be60-3ebdf399abd9,1695845149301526196,-3.387451,0.579834,-0.764847,-0.016602,0.041992,1.004883,1.6922914778375848,1.9604998862560419,-112.40039058806656,0.55636066198349,0.021785670891404152,-0.006000913679599762,-0.8306335806846619
d8025493-41a0-4331-b7f4-900253c028e8,236cefd1-6135-4146-be60-3ebdf399abd9,1695845149304595196,-3.509521,0.827789,-0.947952,-0.020996,0.029785,0.981445,1.694273285919867,1.944248763985567,-112.38858270613375,0.5564459562301636,0.021721798926591873,-0.005871214903891087,-0.8305790424346924
d8025493-41a0-4331-b7f4-900253c028e8,236cefd1-6135-4146-be60-3ebdf399abd9,1695845149307664196,-2.962112,0.337601,-1.253128,-0.022949,0.031738,0.998047,1.6944925781061395,1.9307115023459187,-112.37743427911977,0.5565264225006104,0.021658264100551605,-0.005769888870418072,-0.8305275440216064
d8025493-41a0-4331-b7f4-900253c028e8,236cefd1-6135-4146-be60-3ebdf399abd9,1695845149310733196,-2.779007,0.520706,-1.615524,-0.027832,0.030762,1.002441,1.696591284845179,1.9177317501050433,-112.3678712044762,0.556595504283905,0.021610956639051437,-0.005663787946105003,-0.8304831981658936
d8025493-41a0-4331-b7f4-900253c028e8,236cefd1-6135-4146-be60-3ebdf399abd9,1695845149313802196,-2.901077,0.337601,-1.558304,-0.024414,0.025391,0.996582,1.6971677618091647,1.903156503583933,-112.37020802606742,0.5565782189369202,0.021544277667999268,-0.00555576104670763,-0.8304972052574158
d8025493-41a0-4331-b7f4-900253c028e8,236cefd1-6135-4146-be60-3ebdf399abd9,1695845149316871196,-2.653122,0.337601,-1.924515,-0.022461,0.033203,0.995605,1.697360186540137,1.8913563420766464,-112.37665364718518,0.5565311908721924,0.021488092839717865,-0.0054704854264855385,-0.8305307626724243
d8025493-41a0-4331-b7f4-900253c028e8,236cefd1-6135-4146-be60-3ebdf399abd9,1695845149319940196,-2.473831,0.032425,-1.924515,-0.026367,0.041992,0.992187,1.6971138692664227,1.8823226491959215,-112.38368261002712,0.5564799904823303,0.02144213393330574,-0.005407501943409443,-0.8305666446685791
d8025493-41a0-4331-b7f4-900253c028e8,236cefd1-6135-4146-be60-3ebdf399abd9,1695845149323009196,-2.836227,0.337601,-1.924515,-0.030762,0.022949,1.003418,1.6990551938771856,1.8675235344903387,-112.37516671004647,0.556541383266449,0.02138478308916092,-0.005289184860885143,-0.8305277824401855
d8025493-41a0-4331-b7f4-900253c028e8,236cefd1-6135-4146-be60-3ebdf399abd9,1695845149326078196,-2.349854,0.091553,-2.04277,-0.019043,0.041504,0.990234,1.6975102826698294,1.8590036871825584,-112.36412833123073,0.5566210746765137,0.021332740783691406,-0.005232864059507847,-0.8304760456085205
d8025493-41a0-4331-b7f4-900253c028e8,236cefd1-6135-4146-be60-3ebdf399abd9,1695845149329147196,-2.595901,0.276566,-2.164841,-0.023438,0.032227,0.987793,1.697736878452998,1.847445354307582,-112.353078344338,0.5567008256912231,0.021278776228427887,-0.005145917646586895,-0.8304245471954346
d8025493-41a0-4331-b7f4-900253c028e8,236cefd1-6135-4146-be60-3ebdf399abd9,1695845149332216196,-2.962112,-0.02861,-2.347946,-0.03125,0.027344,1.000488,1.6982660778541994,1.8331629004932704,-112.33842370760708,0.5568066239356995,0.021213918924331665,-0.005037098191678524,-0.8303559422492981
d8025493-41a0-4331-b7f4-900253c028e8,236cefd1-6135-4146-be60-3ebdf399abd9,1695845149335285196,-2.838135,-0.091553,-2.412796,-0.020508,0.033691,0.997559,1.6962305970197125,1.8208554771092662,-112.32317534476464,0.5569166541099548,0.021140068769454956,-0.004954964853823185,-0.8302845358848572
d8025493-41a0-4331-b7f4-900253c028e8,236cefd1-6135-4146-be60-3ebdf399abd9,1695845149338354196,-2.89917,0.274658,-2.412796,-0.021973,0.042969,1.009766,1.696033522880299,1.8102560569505926,-112.30785487167887,0.5570273399353027,0.02108781412243843,-0.004876281134784222,-0.8302119970321655
d8025493-41a0-4331-b7f4-900253c028e8,236cefd1-6135-4146-be60-3ebdf399abd9,1695845149341423196,-3.267288,0.276566,-2.286911,-0.040527,0.024902,0.998535,1.6999150261340494,1.7942739151159433,-112.3015398034302,0.5570727586746216,0.021038562059402466,-0.004740427248179913,-0.8301835656166077
d8025493-41a0-4331-b7f4-900253c028e8,236cefd1-6135-4146-be60-3ebdf399abd9,1695845149344492196,-2.779007,0.276566,-2.286911,-0.012207,0.033203,1.01123,1.6975530019782543,1.782199146827598,-112.29705427150869,0.557104766368866,0.020962974056601524,-0.004663582891225815,-0.8301644921302795
d8025493-41a0-4331-b7f4-900253c028e8,236cefd1-6135-4146-be60-3ebdf399abd9,1695845149347561196,-2.838135,0.522614,-2.531052,-0.019043,0.032715,1.003906,1.6978205428238582,1.7698160913839647,-112.29413867766695,0.5571255087852478,0.020904866978526115,-0.004572013393044472,-0.8301525115966797
d8025493-41a0-4331-b7f4-900253c028e8,236cefd1-6135-4146-be60-3ebdf399abd9,1695845149350630196,-2.716064,0.396729,-2.592087,-0.021973,0.031738,1.00293,1.698213591006589,1.7577964479934505,-112.29166681526756,0.5571430325508118,0.02084941416978836,-0.004482549615204334,-0.8301426768302917
d8025493-41a0-4331-b7f4-900253c028e8,236cefd1-6135-4146-be60-3ebdf399abd9,1695845149353699196,-2.532959,0.457764,-2.229691,-0.045898,0.029297,1.001465,1.7040254502541305,1.7461419547500925,-112.28565526223531,0.5571864247322083,0.020835120230913162,-0.004368744790554047,-0.830114483833313
d8025493-41a0-4331-b7f4-900253c028e8,236cefd1-6135-4146-be60-3ebdf399abd9,1695845149356768196,-2.473831,0.398636,-2.470016,-0.030273,0.020996,1.013672,1.706109029699151,1.732889130238945,-112.2802565649992,0.5572251677513123,0.020786017179489136,-0.004261600784957409,-0.8300902247428894
d8025493-41a0-4331-b7f4-900253c028e8,236cefd1-6135-4146-be60-3ebdf399abd9,1695845149360932196,-2.227783,0.457764,-2.412796,-0.026367,0.040039,1.014648,1.707585002801197,1.7248815532954451,-112.27455490053437,0.5572662353515625,0.020758006721735,-0.004195366054773331,-0.8300637602806091
d8025493-41a0-4331-b7f4-900253c028e8,236cefd1-6135-4146-be60-3ebdf399abd9,1695845149365096196,-2.166748,0.701904,-2.653122,-0.027344,0.027832,1.015625,1.7103360395382816,1.714489573732092,-112.28646705419251,0.5571796894073486,0.02072700299322605,-0.0041088443249464035,-0.8301230072975159
d8025493-41a0-4331-b7f4-900253c028e8,236cefd1-6135-4146-be60-3ebdf399abd9,1695845149369260196,-2.166748,1.068115,-2.04277,-0.022949,0.04248,1.02002,1.713644889395376,1.7073570993423988,-112.29898539425479,0.5570888519287109,0.020715875551104546,-0.0040433332324028015,-0.8301846385002136
d8025493-41a0-4331-b7f4-900253c028e8,236cefd1-6135-4146-be60-3ebdf399abd9,1695845149373424196,-1.497269,0.764847,-2.412796,-0.034668,0.037598,1.0,1.7183006511939851,1.7022033961518024,-112.31393100561299,0.556980550289154,0.020724046975374222,-0.003986054100096226,-0.8302573561668396
d8025493-41a0-4331-b7f4-900253c028e8,236cefd1-6135-4146-be60-3ebdf399abd9,1695845149377588196,-1.434326,0.701904,-2.103806,-0.029785,0.03125,1.0,1.7215879350409646,1.695996264295859,-112.31506756614617,0.5569722056388855,0.020717674866318703,-0.0039252955466508865,-0.8302633762359619
d8025493-41a0-4331-b7f4-900253c028e8,236cefd1-6135-4146-be60-3ebdf399abd9,1695845149381752196,-1.373291,0.579834,-2.103806,-0.01416,0.035156,0.989258,1.7210105340422153,1.6909971800571857,-112.31363230578097,0.5569823980331421,0.020689258351922035,-0.003891611471772194,-0.8302574157714844
d8025493-41a0-4331-b7f4-900253c028e8,236cefd1-6135-4146-be60-3ebdf399abd9,1695845149385916196,-1.188278,1.131058,-1.981735,-0.029785,0.019531,1.007324,1.7260713499285216,1.683327519225952,-112.3113291051524,0.5569989681243896,0.020688747987151146,-0.003811011090874672,-0.8302466869354248
d8025493-41a0-4331-b7f4-900253c028e8,236cefd1-6135-4146-be60-3ebdf399abd9,1695845149390080196,-1.251221,1.068115,-2.04277,-0.031738,0.026367,1.005371,1.7313131337175522,1.6769019247186796,-112.31586796705416,0.5569660067558289,0.020695365965366364,-0.0037397826090455055,-0.8302689790725708
d8025493-41a0-4331-b7f4-900253c028e8,236cefd1-6135-4146-be60-3ebdf399abd9,1695845149394244196,-1.131058,0.947952,-1.859665,-0.027832,0.040527,0.994141,1.7351944770986198,1.6741993331716343,-112.32091346477658,0.5569294691085815,0.02071019820868969,-0.00370224192738533,-0.8302932977676392
d8025493-41a0-4331-b7f4-900253c028e8,236cefd1-6135-4146-be60-3ebdf399abd9,1695845149398408196,-1.008987,0.886917,-1.924515,-0.042969,0.026367,0.990234,1.7420997485891245,1.668984643987165,-112.32660841605069,0.556888222694397,0.020734723657369614,-0.003631916828453541,-0.8303206562995911
d8025493-41a0-4331-b7f4-900253c028e8,236cefd1-6135-4146-be60-3ebdf399abd9,1695845149402572196,-1.314163,0.947952,-1.79863,-0.036621,0.018555,0.999023,1.7478105697597184,1.6607242506671882,-112.32395570721776,0.5569072961807251,0.02073606848716736,-0.0035438118502497673,-0.830308198928833
d8025493-41a0-4331-b7f4-900253c028e8,236cefd1-6135-4146-be60-3ebdf399abd9,1695845149406736196,-1.12915,0.88501,-1.741409,-0.037598,0.030273,0.99707,1.7534412256378886,1.655854427237064,-112.31954274683186,0.5569392442703247,0.020753350108861923,-0.0034803515300154686,-0.8302866220474243
d8025493-41a0-4331-b7f4-900253c028e8,236cefd1-6135-4146-be60-3ebdf399abd9,1695845149410900196,-1.188278,1.131058,-1.615524,-0.023926,0.032227,1.000488,1.7571244667838546,1.6511544086025882,-112.31421822591172,0.5569777488708496,0.020757367834448814,-0.003427421674132347,-0.8302608728408813
d8025493-41a0-4331-b7f4-900253c028e8,236cefd1-6135-4146-be60-3ebdf399abd9,1695845149415064196,-1.739502,0.762939,-1.558304,-0.026855,0.02832,0.987793,1.7598811807560246,1.6433233577224,-112.30855701032077,0.557018518447876,0.020739469677209854,-0.0033562416210770607,-0.8302342891693115
d8025493-41a0-4331-b7f4-900253c028e8,236cefd1-6135-4146-be60-3ebdf399abd9,1695845149419228196,-1.373291,0.701904,-1.188278,-0.032715,0.019531,0.988769,1.763602125007224,1.635249353722286,-112.30223930492805,0.5570640563964844,0.020727388560771942,-0.00327849667519331,-0.8302043676376343
d8025493-41a0-4331-b7f4-900253c028e8,236cefd1-6135-4146-be60-3ebdf399abd9,1695845149423392196,-1.802444,0.764847,-1.070023,-0.028809,0.034668,0.990723,1.7666877246481276,1.6286321247842808,-112.29551564489108,0.5571125745773315,0.020717784762382507,-0.0032143257558345795,-0.8301723003387451
d8025493-41a0-4331-b7f4-900253c028e8,236cefd1-6135-4146-be60-3ebdf399abd9,1695845149427556196,-1.678467,0.762939,-1.436234,-0.034668,0.015137,0.994629,1.771055158949928,1.61826234836002,-112.29054392313147,0.557148277759552,0.02069917693734169,-0.003117048181593418,-0.8301491141319275
d8025493-41a0-4331-b7f4-900253c028e8,236cefd1-6135-4146-be60-3ebdf399abd9,1695845149431720196,-1.802444,0.520706,-1.127243,-0.020996,0.037598,0.995117,1.7713426923019344,1.6123075390323558,-112.28143344295763,0.5572140216827393,0.020672570914030075,-0.0030708545818924904,-0.8301058411598206
d8025493-41a0-4331-b7f4-900253c028e8,236cefd1-6135-4146-be60-3ebdf399abd9,1695845149435884196,-1.676559,0.276566,-0.638962,-0.03125,0.023438,1.000977,1.7726757499027779,1.6038685534995731,-112.26978479259121,0.5572980642318726,0.020641524344682693,-0.0030011236667633057,-0.8300504684448242
d8025493-41a0-4331-b7f4-900253c028e8,236cefd1-6135-4146-be60-3ebdf399abd9,1695845149440048196,-1.676559,0.276566,-1.005173,-0.027832,0.025391,1.007812,1.7732614945530876,1.5957947433643294,-112.25967379000166,0.5573709607124329,0.020606786012649536,-0.002937956713140011,-0.8300026059150696
d8025493-41a0-4331-b7f4-900253c028e8,236cefd1-6135-4146-be60-3ebdf399abd9,1695845149444416196,-1.619339,0.032425,-0.947952,-0.027832,0.026855,1.000488,1.7728349110019501,1.58838476854345,-112.24173595346592,0.5575005412101746,0.020568128675222397,-0.0028831250965595245,-0.8299167156219482
d8025493-41a0-4331-b7f4-900253c028e8,236cefd1-6135-4146-be60-3ebdf399abd9,1695845149448784196,-1.676559,0.337601,-0.581741,-0.029785,0.01709,0.998535,1.7741216726978373,1.5786827607093188,-112.22076641684238,0.5576519966125488,0.020530790090560913,-0.002802821807563305,-0.8298161625862122
d8025493-41a0-4331-b7f4-900253c028e8,236cefd1-6135-4146-be60-3ebdf399abd9,1695845149453152196,-1.676559,-0.02861,-0.516891,-0.017578,0.030273,1.004395,1.7711120908927473,1.5718513532751992,-112.19924717615707,0.557807445526123,0.020476290956139565,-0.002764139324426651,-0.8297131061553955
d8025493-41a0-4331-b7f4-900253c028e8,236cefd1-6135-4146-be60-3ebdf399abd9,1695845149457520196,-1.436234,-0.150681,-0.333786,-0.032715,0.024902,1.000488,1.7708713094006836,1.5649899434653032,-112.20315316187532,0.5577788352966309,0.020441077649593353,-0.0027163121849298477,-0.8297334313392639
d8025493-41a0-4331-b7f4-900253c028e8,236cefd1-6135-4146-be60-3ebdf399abd9,1695845149461888196,-1.008987,-0.211716,-0.276566,-0.024414,0.021484,1.01123,1.7693816482649245,1.5636570944550696,-112.21098587376893,0.5577220320701599,0.02042362093925476,-0.002715306356549263,-0.8297719955444336
d8025493-41a0-4331-b7f4-900253c028e8,236cefd1-6135-4146-be60-3ebdf399abd9,1695845149466256196,-0.825882,-0.211716,-0.276566,-0.022949,0.016113,1.0,1.7676579146733247,1.5612310829274834,-112.21985523692621,0.5576576590538025,0.020399129018187523,-0.0027077030390501022,-0.8298158645629883
d8025493-41a0-4331-b7f4-900253c028e8,236cefd1-6135-4146-be60-3ebdf399abd9,1695845149470624196,-1.188278,-0.150681,0.09346,-0.01709,0.024902,0.995117,1.7647120080791443,1.5607477063326136,-112.21354438747296,0.5577032566070557,0.02037559635937214,-0.0027174148708581924,-0.8297858238220215
d8025493-41a0-4331-b7f4-900253c028e8,236cefd1-6135-4146-be60-3ebdf399abd9,1695845149474992196,-0.764847,-0.02861,0.032425,-0.033691,0.026367,1.012207,1.7652510934482482,1.5604820764936587,-112.20432572541955,0.5577700138092041,0.02037842571735382,-0.002711228094995022,-0.8297408819198608
d8025493-41a0-4331-b7f4-900253c028e8,236cefd1-6135-4146-be60-3ebdf399abd9,1695845149479360196,-0.88501,0.034332,0.154495,-0.025391,0.025879,1.000977,1.764065232862326,1.560179089927698,-112.19446663347611,0.5578413605690002,0.02036859840154648,-0.002713053487241268,-0.8296931385993958
d8025493-41a0-4331-b7f4-900253c028e8,236cefd1-6135-4146-be60-3ebdf399abd9,1695845149483728196,-0.640869,-0.091553,0.09346,-0.036133,0.026367,1.007812,1.7651686262291506,1.5599405746817672,-112.184572417669,0.5579130053520203,0.020375661551952362,-0.0027041947469115257,-0.8296448588371277
d8025493-41a0-4331-b7f4-900253c028e8,236cefd1-6135-4146-be60-3ebdf399abd9,1695845149488096196,-0.823975,0.213623,0.276566,-0.027344,0.036133,0.987793,1.7644911882458425,1.5619405556306454,-112.17077617149744,0.5580129623413086,0.020380815491080284,-0.002719523385167122,-0.8295774459838867
d8025493-41a0-4331-b7f4-900253c028e8,236cefd1-6135-4146-be60-3ebdf399abd9,1695845149492464196,-0.699997,-0.02861,0.337601,-0.022461,0.029297,0.998047,1.7627069733119969,1.562387991613285,-112.15620726373177,0.5581184029579163,0.020370423793792725,-0.0027288617566227913,-0.8295067548751831
d8025493-41a0-4331-b7f4-900253c028e8,236cefd1-6135-4146-be60-3ebdf399abd9,1695845149496832196,-0.579834,-0.030518,0.337601,-0.023437,0.029785,0.985352,1.7612120518133048,1.5630170397215304,-112.14152535227193,0.5582246780395508,0.020363014191389084,-0.0027380893006920815,-0.8294353485107422
d8025493-41a0-4331-b7f4-900253c028e8,236cefd1-6135-4146-be60-3ebdf399abd9,1695845149501200196,-0.459671,-0.02861,0.642776,-0.021484,0.007812,0.994141,1.759240811709246,1.5588292561944623,-112.13370221748892,0.5582810640335083,0.020328544080257416,-0.0027159834280610085,-0.8293983340263367
d8025493-41a0-4331-b7f4-900253c028e8,236cefd1-6135-4146-be60-3ebdf399abd9,1695845149505568196,-0.642776,-0.02861,0.581741,-0.021484,0.025391,0.980469,1.7573708372414567,1.5585475171455727,-112.1272873380924,0.5583274364471436,0.020313790068030357,-0.0027219168841838837,-0.829367458820343
d8025493-41a0-4331-b7f4-900253c028e8,236cefd1-6135-4146-be60-3ebdf399abd9,1695845149509936196,-0.457764,-0.274658,0.764847,-0.044434,0.026367,0.979004,1.7604896309846971,1.5584839901480723,-112.12127633222259,0.5583710074424744,0.020336195826530457,-0.002705194056034088,-0.8293376564979553
d8025493-41a0-4331-b7f4-900253c028e8,236cefd1-6135-4146-be60-3ebdf399abd9,1695845149514304196,-0.642776,0.154495,0.883102,-0.032715,0.015625,0.998047,1.7609342034324533,1.5559807210298282,-112.10637188249041,0.5584787726402283,0.020327571779489517,-0.002682262100279331,-0.8292653560638428
d8025493-41a0-4331-b7f4-900253c028e8,236cefd1-6135-4146-be60-3ebdf399abd9,1695845149518672196,-0.762939,-0.091553,0.520706,-0.021484,0.022461,0.991699,1.758968028303835,1.5550112730164125,-112.0896716676753,0.5585995316505432,0.02030901238322258,-0.0026818672195076942,-0.8291844725608826
d8025493-41a0-4331-b7f4-900253c028e8,236cefd1-6135-4146-be60-3ebdf399abd9,1695845149523040196,-0.88501,0.213623,0.699997,-0.027832,0.02832,0.991211,1.7584099373174575,1.555313541912657,-112.07269412529607,0.5587223768234253,0.020306844264268875,-0.00268376711755991,-0.8291017413139343
d8025493-41a0-4331-b7f4-900253c028e8,236cefd1-6135-4146-be60-3ebdf399abd9,1695845149527408196,-0.946045,-0.091553,0.825882,-0.024414,0.035645,0.995117,1.7570791068057199,1.5571813106298316,-112.06153830345814,0.558803141117096,0.020306579768657684,-0.002701796591281891,-0.8290472626686096
d8025493-41a0-4331-b7f4-900253c028e8,236cefd1-6135-4146-be60-3ebdf399abd9,1695845149531776196,-0.946045,0.396729,0.581741,-0.01709,0.014648,0.984863,1.7542287134205914,1.5545530703243031,-112.05154431232049,0.5588752627372742,0.02027338370680809,-0.002694908529520035,-0.8289994597434998
d8025493-41a0-4331-b7f4-900253c028e8,236cefd1-6135-4146-be60-3ebdf399abd9,1695845149536144196,-0.825882,0.154495,1.131058,-0.018555,0.031738,0.978027,1.7522884879888323,1.552228730826991,-112.0367749558211,0.5589819550514221,0.02024836465716362,-0.0026849415153265,-0.8289281725883484
d8025493-41a0-4331-b7f4-900253c028e8,236cefd1-6135-4146-be60-3ebdf399abd9,1695845149539845196,-0.825882,0.337601,0.764847,-0.024902,0.016602,0.991699,1.7511178740434372,1.549998240227202,-112.01553047579235,0.5591354966163635,0.0202295184135437,-0.0026707621291279793,-0.8288251161575317
d8025493-41a0-4331-b7f4-900253c028e8,236cefd1-6135-4146-be60-3ebdf399abd9,1695845149543546196,-1.188278,0.154495,0.699997,-0.01709,0.024902,0.999512,1.7487826225977166,1.5444299042136458,-111.98873580992145,0.5593289732933044,0.02018609270453453,-0.002637149766087532,-0.8286957740783691
d8025493-41a0-4331-b7f4-900253c028e8,236cefd1-6135-4146-be60-3ebdf399abd9,1695845149547247196,-0.883102,0.642776,0.764847,-0.014648,0.010742,0.997559,1.745345746433216,1.5409296438154816,-111.96479148631256,0.5595018863677979,0.020144712179899216,-0.0026243962347507477,-0.8285800814628601
d8025493-41a0-4331-b7f4-900253c028e8,236cefd1-6135-4146-be60-3ebdf399abd9,1695845149550948196,-1.253128,0.337601,0.581741,-0.019043,0.018066,1.001953,1.7442661366773624,1.5336138065494926,-111.93815785332791,0.5596941113471985,0.02010180428624153,-0.0025720829144120216,-0.82845139503479
d8025493-41a0-4331-b7f4-900253c028e8,236cefd1-6135-4146-be60-3ebdf399abd9,1695845149554649196,-0.947952,0.825882,0.699997,-0.026855,0.028809,1.001953,1.7469825589143677,1.5300025381128073,-111.93844915660348,0.5596919059753418,0.020103808492422104,-0.0025327512994408607,-0.8284529447555542
d8025493-41a0-4331-b7f4-900253c028e8,236cefd1-6135-4146-be60-3ebdf399abd9,1695845149558350196,-0.640869,0.701904,0.520706,-0.022949,0.025879,0.999512,1.7453468440772255,1.529823908407095,-111.94739554904024,0.5596271753311157,0.020090913400053978,-0.002541016787290573,-0.8284969925880432
d8025493-41a0-4331-b7f4-900253c028e8,236cefd1-6135-4146-be60-3ebdf399abd9,1695845149562051196,-0.825882,0.947952,0.642776,-0.037598,0.020508,0.997559,1.7509562682701858,1.5249751447020152,-111.95459460930873,0.5595750212669373,0.020107649266719818,-0.0024798186495900154,-0.8285320401191711
d8025493-41a0-4331-b7f4-900253c028e8,236cefd1-6135-4146-be60-3ebdf399abd9,1695845149565752196,-0.764847,0.947952,1.008987,-0.01416,0.017578,0.993652,1.751436386053427,1.5198532934125157,-111.94580144119637,0.5596383810043335,0.02008631080389023,-0.0024388907477259636,-0.8284898400306702
d8025493-41a0-4331-b7f4-900253c028e8,236cefd1-6135-4146-be60-3ebdf399abd9,1695845149569453196,-0.825882,1.131058,0.394821,-0.022949,0.019531,1.0,1.7546709355353494,1.514784220724069,-111.93689880622706,0.5597025752067566,0.02008514106273651,-0.002384874038398266,-0.8284466862678528
d8025493-41a0-4331-b7f4-900253c028e8,236cefd1-6135-4146-be60-3ebdf399abd9,1695845149573154196,-0.642776,1.314163,0.520706,-0.022949,0.022461,0.991699,1.7587202611137627,1.5112334181468248,-111.92694498155419,0.5597744584083557,0.020097285509109497,-0.002337672747671604,-0.8283979296684265
d8025493-41a0-4331-b7f4-900253c028e8,236cefd1-6135-4146-be60-3ebdf399abd9,1695845149576855196,-0.699997,1.436234,0.699997,-0.018066,0.024414,0.996582,1.7621789056299308,1.5078505551330008,-111.91623856260995,0.5598517656326294,0.020105987787246704,-0.002294437028467655,-0.8283455967903137
d8025493-41a0-4331-b7f4-900253c028e8,236cefd1-6135-4146-be60-3ebdf399abd9,1695845149580556196,-0.459671,1.497269,0.337601,-0.016113,0.013184,0.995117,1.7655148993110052,1.5030700740888912,-111.90721200421135,0.5599168539047241,0.020106937736272812,-0.00224198866635561,-0.828301727771759
d8025493-41a0-4331-b7f4-900253c028e8,236cefd1-6135-4146-be60-3ebdf399abd9,1695845149584257196,-0.520706,1.436234,0.276566,-0.020996,0.010254,1.006348,1.7695627949492252,1.4973335587885543,-111.89851009824326,0.5599795579910278,0.02010834962129593,-0.0021792063489556313,-0.8282594680786133
d8025493-41a0-4331-b7f4-900253c028e8,236cefd1-6135-4146-be60-3ebdf399abd9,1695845149587958196,-0.457764,1.678467,0.032425,-0.01416,0.015625,0.991699,1.7733067515201208,1.4931003165952286,-111.87567141534825,0.5601444840431213,0.020115161314606667,-0.002126295119524002,-0.8281479477882385
d8025493-41a0-4331-b7f4-900253c028e8,236cefd1-6135-4146-be60-3ebdf399abd9,1695845149591659196,-0.701904,1.861572,0.09346,-0.016113,0.026855,0.988281,1.7782612098769384,1.4902832416032281,-111.84955131825441,0.5603331923484802,0.02013767883181572,-0.0020771222189068794,-0.8280198574066162
d8025493-41a0-4331-b7f4-900253c028e8,236cefd1-6135-4146-be60-3ebdf399abd9,1695845149595360196,-0.642776,1.98555,0.211716,-0.026367,0.024414,1.001465,1.7858625571163276,1.4871517157282392,-111.82240078487514,0.560529351234436,0.020177777856588364,-0.0020125387236475945,-0.8278862237930298
d8025493-41a0-4331-b7f4-900253c028e8,236cefd1-6135-4146-be60-3ebdf399abd9,1695845149599061196,-0.823975,2.166748,0.032425,-0.014648,0.030273,0.989258,1.7917889484400404,1.484551238597923,-111.79827124254346,0.5607036352157593,0.020208295434713364,-0.0019605010747909546,-0.8277676105499268
d8025493-41a0-4331-b7f4-900253c028e8,236cefd1-6135-4146-be60-3ebdf399abd9,1695845149602762196,-0.701904,2.227783,-0.333786,-0.021484,0.023438,1.007324,1.799362783055618,1.480857416070914,-111.77629677307374,0.5608623027801514,0.020245306193828583,-0.0018928693607449532,-0.8276593685150146
d8025493-41a0-4331-b7f4-900253c028e8,236cefd1-6135-4146-be60-3ebdf399abd9,1695845149606463196,-0.764847,2.10762,-0.394821,-0.01416,0.03125,0.996582,1.804890849853036,1.4786540576157607,-111.75467095907355,0.5610184669494629,0.020274804905056953,-0.0018460676074028015,-0.8275529146194458
d8025493-41a0-4331-b7f4-900253c028e8,236cefd1-6135-4146-be60-3ebdf399abd9,1695845149610164196,-1.12915,2.044678,-0.333786,-0.01416,0.015137,0.997559,1.8100989209489802,1.4713762764890148,-111.73281695751484,0.5611760020256042,0.02027714252471924,-0.0017641307786107063,-0.8274461627006531
d8025493-41a0-4331-b7f4-900253c028e8,236cefd1-6135-4146-be60-3ebdf399abd9,1695845149613865196,-0.88501,2.655029,-0.516891,-0.019043,0.018555,0.991211,1.819060157552397,1.4659420721930803,-111.72123168101805,0.5612595081329346,0.020315423607826233,-0.001678941771388054,-0.8273887634277344
d8025493-41a0-4331-b7f4-900253c028e8,236cefd1-6135-4146-be60-3ebdf399abd9,1695845149617566196,-0.642776,2.595901,-0.581741,-0.016602,0.022949,1.004883,1.8271254942718058,1.4624566078139574,-111.71184369037682,0.5613272190093994,0.02035672962665558,-0.001612597145140171,-0.8273419737815857
d8025493-41a0-4331-b7f4-900253c028e8,236cefd1-6135-4146-be60-3ebdf399abd9,1695845149621267196,-0.823975,2.655029,-0.947952,-0.025391,0.007812,1.007324,1.8373372385706104,1.4548421353165502,-111.70448463955815,0.5613800883293152,0.02039327658712864,-0.0015062745660543442,-0.8273053765296936
d8025493-41a0-4331-b7f4-900253c028e8,236cefd1-6135-4146-be60-3ebdf399abd9,1695845149624968196,-0.88501,2.349854,-0.699997,-0.036621,0.021484,0.987305,1.848737445737757,1.4500941679173684,-111.69660960375991,0.5614368319511414,0.020452432334423065,-0.001414732076227665,-0.8272655606269836
d8025493-41a0-4331-b7f4-900253c028e8,236cefd1-6135-4146-be60-3ebdf399abd9,1695845149628669196,-0.883102,2.595901,-1.127243,-0.014648,0.025879,0.996094,1.856380928751531,1.4462114074927415,-111.69058175634599,0.5614802241325378,0.020488671958446503,-0.0013481667265295982,-0.8272353410720825
d8025493-41a0-4331-b7f4-900253c028e8,236cefd1-6135-4146-be60-3ebdf399abd9,1695845149632370196,-1.131058,2.962112,-1.188278,-0.025879,0.027832,0.994141,1.86804433117157,1.4417026841736502,-111.68488403716692,0.5615212321281433,0.02055085450410843,-0.001257438212633133,-0.8272061347961426
d8025493-41a0-4331-b7f4-900253c028e8,236cefd1-6135-4146-be60-3ebdf399abd9,1695845149767355196,-0.825882,0.337601,-0.333786,-0.040527,0.013672,0.994141,2.3289259935816466,1.1594378823055178,-111.51399465227506,0.5627289414405823,0.02249092236161232,0.0030725980177521706,-0.82632976770401
d8025493-41a0-4331-b7f4-900253c028e8,236cefd1-6135-4146-be60-3ebdf399abd9,1695845149792725196,-1.008987,0.276566,-0.699997,-0.038574,0.015137,1.011719,2.328360138102834,1.1582784682265361,-111.51507224529763,0.5627210736274719,0.022481180727481842,0.0030779708176851273,-0.8263353705406189
d8025493-41a0-4331-b7f4-900253c028e8,236cefd1-6135-4146-be60-3ebdf399abd9,1695845149818095196,-0.701904,0.091553,-0.211716,-0.046387,0.014648,1.005371,2.329556966623704,1.1570417131046469,-111.51909424993352,0.5626919269561768,0.02248384803533554,0.0030919788405299187,-0.8263550400733948
d8025493-41a0-4331-b7f4-900253c028e8,236cefd1-6135-4146-be60-3ebdf399abd9,1695845149843465196,-0.701904,0.213623,-0.211716,-0.047363,0.02832,1.005859,2.3309526313313995,1.1587723162790213,-111.52368223794431,0.562658965587616,0.022502530366182327,0.003085448406636715,-0.8263770341873169
d8025493-41a0-4331-b7f4-900253c028e8,236cefd1-6135-4146-be60-3ebdf399abd9,1695845149868835196,-0.581741,0.154495,0.032425,-0.046875,0.027344,0.995605,2.3323216816216346,1.1603309478162842,-111.52955023091329,0.562616765499115,0.02252020873129368,0.003079773858189583,-0.8264052867889404
d8025493-41a0-4331-b7f4-900253c028e8,236cefd1-6135-4146-be60-3ebdf399abd9,1695845149889107196,-0.396729,0.339508,0.276566,-0.041016,0.01123,1.006348,2.332331365495378,1.1583418493795796,-111.5356475607619,0.5625725984573364,0.02251068316400051,0.0030929725617170334,-0.8264355659484863
d8025493-41a0-4331-b7f4-900253c028e8,236cefd1-6135-4146-be60-3ebdf399abd9,1695845149909379196,-0.154495,0.032425,0.394821,-0.035645,0.013672,1.001465,2.331214696378089,1.1569130719704834,-111.54176422707408,0.5625283718109131,0.022495785728096962,0.003096597269177437,-0.8264660835266113
d8025493-41a0-4331-b7f4-900253c028e8,236cefd1-6135-4146-be60-3ebdf399abd9,1695845149929651196,-0.457764,0.091553,0.459671,-0.046387,0.019531,0.986816,2.332560870491988,1.1568218805201405,-111.53693263637889,0.5625631809234619,0.022504914551973343,0.0031048115342855453,-0.8264420628547668
d8025493-41a0-4331-b7f4-900253c028e8,236cefd1-6135-4146-be60-3ebdf399abd9,1695845149949923196,-0.337601,-0.150681,0.459671,-0.046387,0.016602,0.997559,2.333811127873978,1.1560480429399076,-111.52990060025978,0.5626137852668762,0.022509943693876266,0.003117913380265236,-0.8264074325561523
d8025493-41a0-4331-b7f4-900253c028e8,236cefd1-6135-4146-be60-3ebdf399abd9,1695845149970195196,-0.579834,-0.453949,0.883102,-0.049316,0.01416,0.994141,2.3357119885676956,1.1547645030575382,-111.5224540459976,0.5626673102378845,0.02251715026795864,0.0031379684805870056,-0.8263707160949707
d8025493-41a0-4331-b7f4-900253c028e8,236cefd1-6135-4146-be60-3ebdf399abd9,1695845149990467196,-0.459671,-0.699997,0.764847,-0.041016,0.007812,0.988769,2.3358616286136558,1.1521326630694597,-111.50620064057374,0.5627842545509338,0.022504866123199463,0.003160879947245121,-0.8262913227081299
d8025493-41a0-4331-b7f4-900253c028e8,236cefd1-6135-4146-be60-3ebdf399abd9,1695845150010739196,-0.762939,-0.637054,0.699997,-0.039062,0.033691,1.004883,2.3354440970528816,1.155051996818838,-111.48818699796439,0.5629144310951233,0.022515691816806793,0.00314131285995245,-0.8262024521827698
d8025493-41a0-4331-b7f4-900253c028e8,236cefd1-6135-4146-be60-3ebdf399abd9,1695845150031011196,-0.459671,-0.516891,0.883102,-0.053223,0.030762,0.989746,2.3382286258472473,1.1573891600134547,-111.46991183236854,0.5630463361740112,0.022546742111444473,0.0031417319551110268,-0.8261117339134216
d8025493-41a0-4331-b7f4-900253c028e8,236cefd1-6135-4146-be60-3ebdf399abd9,1695845150033774196,-0.457764,-0.579834,0.947952,-0.045898,0.022461,0.998535,2.3393353614609165,1.157881016778217,-111.45155828976428,0.5631786584854126,0.02255663275718689,0.0031472360715270042,-0.8260212540626526
d8025493-41a0-4331-b7f4-900253c028e8,236cefd1-6135-4146-be60-3ebdf399abd9,1695845150036537196,-0.642776,-0.822067,1.008987,-0.035156,0.028809,0.996582,2.334462657846669,1.1571328079564729,-111.4326555104002,0.5633149743080139,0.022517316043376923,0.003132397308945656,-0.8259294033050537
d8025493-41a0-4331-b7f4-900253c028e8,236cefd1-6135-4146-be60-3ebdf399abd9,1695845150039300196,-0.642776,-0.822067,1.070023,-0.036621,0.019531,0.990723,2.3299655929270306,1.1544128937952713,-111.41435038220166,0.5634467601776123,0.02247104048728943,0.0031334897503256798,-0.8258407711982727
d8025493-41a0-4331-b7f4-900253c028e8,236cefd1-6135-4146-be60-3ebdf399abd9,1695845150042063196,-0.642776,-0.333786,1.371384,-0.035156,0.013672,0.994629,2.327227781970073,1.1504710792376138,-111.39492867359594,0.563586413860321,0.022431405261158943,0.003152245655655861,-0.825746476650238
d8025493-41a0-4331-b7f4-900253c028e8,236cefd1-6135-4146-be60-3ebdf399abd9,1695845150044826196,-0.579834,-0.701904,1.131058,-0.062012,0.021484,1.000977,2.328692245329582,1.1484278739972076,-111.40119106568879,0.563541054725647,0.02243208698928356,0.003172948956489563,-0.8257772922515869
d8025493-41a0-4331-b7f4-900253c028e8,236cefd1-6135-4146-be60-3ebdf399abd9,1695845150047589196,-0.579834,-0.637054,0.947952,-0.031738,0.015625,1.004883,2.326721302322699,1.1474442548172314,-111.41724580862919,0.5634253025054932,0.022413495928049088,0.0031672073528170586,-0.8258568644523621
d8025493-41a0-4331-b7f4-900253c028e8,236cefd1-6135-4146-be60-3ebdf399abd9,1695845150050352196,-0.825882,-0.455856,1.188278,-0.039062,0.013184,1.002441,2.3242671498566305,1.1425562581759763,-111.42895799201477,0.5633404850959778,0.022372115403413773,0.003188091330230236,-0.8259157538414001
d8025493-41a0-4331-b7f4-900253c028e8,236cefd1-6135-4146-be60-3ebdf399abd9,1695845150053115196,-0.762939,-0.453949,1.188278,-0.027832,0.020996,1.000488,2.319391394178002,1.1396595418995235,-111.42197480229854,0.5633906722068787,0.02232254669070244,0.0031863655894994736,-0.8258828520774841
d8025493-41a0-4331-b7f4-900253c028e8,236cefd1-6135-4146-be60-3ebdf399abd9,1695845150055878196,-0.88501,-0.148773,0.947952,-0.022461,0.029297,0.994141,2.3155401588425986,1.1417214612828888,-111.41658365338627,0.5634298324584961,0.022304773330688477,0.0031536156311631203,-0.8258567452430725
d8025493-41a0-4331-b7f4-900253c028e8,236cefd1-6135-4146-be60-3ebdf399abd9,1695845150058641196,-1.068115,0.091553,0.825882,-0.025391,0.017578,1.00293,2.31225411788106,1.1411979348024748,-111.41047788288412,0.5634738802909851,0.022278349846601486,0.003142419271171093,-0.825827419757843
d8025493-41a0-4331-b7f4-900253c028e8,236cefd1-6135-4146-be60-3ebdf399abd9,1695845150061404196,-0.947952,-0.02861,1.070023,-0.032227,0.016602,0.999512,2.3102710572132468,1.1365343262042475,-111.39391409678579,0.5635928511619568,0.02224068157374859,0.0031695012003183365,-0.8257471323013306
d8025493-41a0-4331-b7f4-900253c028e8,236cefd1-6135-4146-be60-3ebdf399abd9,1695845150064838196,-0.947952,0.276566,0.764847,-0.038086,0.018066,1.005859,2.309727144430054,1.1361218424389934,-111.38112149176676,0.5636849999427795,0.02223438210785389,0.0031722821295261383,-0.8256844282150269
d8025493-41a0-4331-b7f4-900253c028e8,236cefd1-6135-4146-be60-3ebdf399abd9,1695845150068272196,-1.434326,0.701904,0.825882,-0.033691,0.023438,0.998535,2.3112897984559613,1.130794556495958,-111.36426726131327,0.563805878162384,0.02221897803246975,0.0032216329127550125,-0.825602114200592
d8025493-41a0-4331-b7f4-900253c028e8,236cefd1-6135-4146-be60-3ebdf399abd9,1695845150071706196,-0.947952,0.642776,0.699997,-0.039551,0.022949,1.009766,2.311027496705392,1.1314454311793458,-111.34646473008172,0.5639342069625854,0.022219788283109665,0.003219103440642357,-0.8255144357681274
d8025493-41a0-4331-b7f4-900253c028e8,236cefd1-6135-4146-be60-3ebdf399abd9,1695845150075140196,-1.314163,0.581741,0.883102,-0.039062,0.015137,0.994141,2.3132447358318204,1.1248973202009045,-111.32364663367676,0.5640978813171387,0.022202901542186737,0.0032816212624311447,-0.8254027962684631
d8025493-41a0-4331-b7f4-900253c028e8,236cefd1-6135-4146-be60-3ebdf399abd9,1695845150078574196,-1.131058,0.459671,0.581741,-0.041992,0.012695,0.998047,2.313609014295259,1.123396716883697,-111.30479725421372,0.5642334818840027,0.022197602316737175,0.0032978784292936325,-0.825310230255127
d8025493-41a0-4331-b7f4-900253c028e8,236cefd1-6135-4146-be60-3ebdf399abd9,1695845150082008196,-1.131058,0.642776,0.154495,-0.036133,0.009277,1.004883,2.3126437278629317,1.1211320651873453,-111.28594291419465,0.5643690824508667,0.022178959101438522,0.0033130887895822525,-0.8252179026603699
d8025493-41a0-4331-b7f4-900253c028e8,236cefd1-6135-4146-be60-3ebdf399abd9,1695845150085442196,-1.434326,0.701904,0.394821,-0.029785,0.009766,0.997559,2.3133946040786184,1.1128266246087486,-111.27070508822804,0.5644779801368713,0.022143036127090454,0.003379558213055134,-0.8251441121101379
d8025493-41a0-4331-b7f4-900253c028e8,236cefd1-6135-4146-be60-3ebdf399abd9,1695845150088876196,-1.190186,0.579834,0.459671,-0.032715,0.018066,0.995605,2.3142545027906585,1.1074352298904402,-111.25643929877124,0.5645801424980164,0.022122260183095932,0.0034253811463713646,-0.8250746130943298
d8025493-41a0-4331-b7f4-900253c028e8,236cefd1-6135-4146-be60-3ebdf399abd9,1695845150092310196,-1.131058,0.337601,0.276566,-0.041992,0.018555,0.990723,2.3146783776167954,1.10730172392435,-111.24468930640987,0.5646647214889526,0.02212430164217949,0.003430698998272419,-0.8250166177749634
d8025493-41a0-4331-b7f4-900253c028e8,236cefd1-6135-4146-be60-3ebdf399abd9,1695845150095744196,-1.314163,0.154495,0.154495,-0.032715,0.016602,0.989258,2.313103338130107,1.1067528081827813,-111.24182355700273,0.5646853446960449,0.022110173478722572,0.003427444025874138,-0.825002908706665
d8025493-41a0-4331-b7f4-900253c028e8,236cefd1-6135-4146-be60-3ebdf399abd9,1695845150099178196,-1.314163,0.09346,-0.211716,-0.025391,0.013672,0.994629,2.309896818566446,1.1055499058468585,-111.2407265649304,0.5646932125091553,0.022081132978200912,0.0034205177798867226,-0.8249983787536621
d8025493-41a0-4331-b7f4-900253c028e8,236cefd1-6135-4146-be60-3ebdf399abd9,1695845150102612196,-1.497269,-0.394821,-0.150681,-0.024414,0.017578,0.997559,2.304753690408438,1.0986354757235963,-111.24042379154102,0.564694881439209,0.022010039538145065,0.0034450236707925797,-0.8249989748001099
d8025493-41a0-4331-b7f4-900253c028e8,236cefd1-6135-4146-be60-3ebdf399abd9,1695845150106046196,-1.371384,-0.333786,-0.276566,-0.032715,0.008789,0.991211,2.3017579915557596,1.0903772599685735,-111.23153135182143,0.5647581815719604,0.021947529166936874,0.0034914351999759674,-0.8249571323394775
d8025493-41a0-4331-b7f4-900253c028e8,236cefd1-6135-4146-be60-3ebdf399abd9,1695845150109480196,-1.251221,0.091553,-0.276566,-0.036621,0.01709,0.992676,2.3010467663388128,1.0899830524071188,-111.21989632583791,0.5648419260978699,0.021940112113952637,0.003492996096611023,-0.8248999714851379
d8025493-41a0-4331-b7f4-900253c028e8,236cefd1-6135-4146-be60-3ebdf399abd9,1695845150112948196,-1.373291,-0.274658,-0.276566,-0.036133,0.019043,1.001465,2.29898285051155,1.083937854234486,-111.20888458161521,0.5649206638336182,0.021895134821534157,0.0035284552723169327,-0.8248471021652222
d8025493-41a0-4331-b7f4-900253c028e8,236cefd1-6135-4146-be60-3ebdf399abd9,1695845150116416196,-1.008987,0.032425,-0.150681,-0.033691,0.019043,0.990723,2.2976654324109855,1.0839997363968252,-111.19906113387744,0.5649914145469666,0.02188565582036972,0.0035233916714787483,-0.8247989416122437
d8025493-41a0-4331-b7f4-900253c028e8,236cefd1-6135-4146-be60-3ebdf399abd9,1695845150119884196,-0.762939,-0.213623,-0.455856,-0.031738,0.016113,1.0,2.2958435914135213,1.083389349775947,-111.18967840950079,0.5650589466094971,0.021869245916604996,0.0035205939784646034,-0.8247531056404114
d8025493-41a0-4331-b7f4-900253c028e8,236cefd1-6135-4146-be60-3ebdf399abd9,1695845150123352196,-0.764847,-0.150681,-0.455856,-0.032715,0.013184,0.995117,2.294291400349804,1.0821641666709472,-111.18042588830417,0.5651254653930664,0.02185175195336342,0.0035235248506069183,-0.8247079849243164
d8025493-41a0-4331-b7f4-900253c028e8,236cefd1-6135-4146-be60-3ebdf399abd9,1695845150126820196,-0.825882,0.09346,-1.188278,-0.038574,0.014648,0.996094,2.2944927665786223,1.077451958380245,-111.1703473743363,0.5651975274085999,0.02182966284453869,0.0035603605210781097,-0.8246590495109558
d8025493-41a0-4331-b7f4-900253c028e8,236cefd1-6135-4146-be60-3ebdf399abd9,1695845150130288196,-0.642776,0.337601,-0.822067,-0.021973,0.009277,1.00293,2.290549002676551,1.0753724020512052,-111.15401909093379,0.5653149485588074,0.0217905230820179,0.0035589830949902534,-0.8245795965194702
d8025493-41a0-4331-b7f4-900253c028e8,236cefd1-6135-4146-be60-3ebdf399abd9,1695845150133756196,-0.642776,0.459671,-0.638962,-0.033203,0.02002,1.000488,2.289077193208,1.0756377363917409,-111.13754494974576,0.5654335618019104,0.021780729293823242,0.003552943468093872,-0.8244985342025757
d8025493-41a0-4331-b7f4-900253c028e8,236cefd1-6135-4146-be60-3ebdf399abd9,1695845150137224196,-0.579834,0.522614,-0.764847,-0.028809,0.010742,0.997559,2.2866734473279884,1.0739051409815863,-111.1210464383174,0.5655521750450134,0.021754376590251923,0.003556683659553528,-0.8244178295135498
d8025493-41a0-4331-b7f4-900253c028e8,236cefd1-6135-4146-be60-3ebdf399abd9,1695845150140692196,-0.520706,0.520706,-1.005173,-0.037109,0.016602,0.997559,2.286081408848335,1.0734473187415061,-111.09671569514106,0.565727174282074,0.021747104823589325,0.003561674617230892,-0.8242979645729065
d8025493-41a0-4331-b7f4-900253c028e8,236cefd1-6135-4146-be60-3ebdf399abd9,1695845150144160196,0.02861,0.459671,-0.883102,-0.029297,0.008301,0.993652,2.2838362816686484,1.071207821017528,-111.0708325445101,0.565913200378418,0.02171909809112549,0.00357160996645689,-0.8241709470748901
d8025493-41a0-4331-b7f4-900253c028e8,236cefd1-6135-4146-be60-3ebdf399abd9,1695845150147628196,-0.091553,0.457764,-1.253128,-0.039551,0.01416,0.997559,2.283784249546939,1.0702306169558315,-111.04472856625264,0.5661008358001709,0.02171308547258377,0.0035833297297358513,-0.8240422010421753
d8025493-41a0-4331-b7f4-900253c028e8,236cefd1-6135-4146-be60-3ebdf399abd9,1695845150151096196,-0.213623,0.762939,-1.253128,-0.044922,0.004395,1.004395,2.2882699642427764,1.065952376699018,-111.03283152375865,0.5661858320236206,0.02172384038567543,0.0036385180428624153,-0.8239832520484924
d8025493-41a0-4331-b7f4-900253c028e8,236cefd1-6135-4146-be60-3ebdf399abd9,1695845150154564196,-0.032425,0.520706,-1.558304,-0.031738,0.005859,0.99707,2.288907199375845,1.0627837919045897,-111.02403236935102,0.5662487745285034,0.021712493151426315,0.0036661233752965927,-0.8239401578903198
d8025493-41a0-4331-b7f4-900253c028e8,236cefd1-6135-4146-be60-3ebdf399abd9,1695845150158032196,-0.154495,0.642776,-1.676559,-0.029785,0.016113,0.998047,2.289655017206536,1.0612928123400431,-111.01610822793053,0.5663055777549744,0.02171025238931179,0.0036820434033870697,-0.8239011168479919
d8025493-41a0-4331-b7f4-900253c028e8,236cefd1-6135-4146-be60-3ebdf399abd9,1695845150161500196,0.030518,0.579834,-1.493454,-0.036621,0.007812,0.994141,2.29162312184558,1.0588539379437634,-111.00341502969492,0.5663965344429016,0.02171194553375244,0.0037117144092917442,-0.8238384127616882
d8025493-41a0-4331-b7f4-900253c028e8,236cefd1-6135-4146-be60-3ebdf399abd9,1695845150164968196,-0.154495,0.520706,-1.79863,-0.023926,0.022461,1.0,2.2905476527523034,1.0587262190700832,-110.99118869020032,0.5664844512939453,0.021703187376260757,0.0037096329033374786,-0.8237782120704651
d8025493-41a0-4331-b7f4-900253c028e8,236cefd1-6135-4146-be60-3ebdf399abd9,1695845150168436196,-0.154495,0.276566,-1.615524,-0.037598,0.009277,0.99707,2.2913844011674285,1.0557827777708637,-110.97809416945431,0.5665782690048218,0.021694231778383255,0.0037374133244156837,-0.8237137794494629
d8025493-41a0-4331-b7f4-900253c028e8,236cefd1-6135-4146-be60-3ebdf399abd9,1695845150171904196,-0.032425,0.642776,-1.615524,-0.040527,0.006348,1.000977,2.2944161082559944,1.0527302610421958,-110.97980434460587,0.5665655732154846,0.021700996905565262,0.0037740273401141167,-0.8237221837043762
d8025493-41a0-4331-b7f4-900253c028e8,236cefd1-6135-4146-be60-3ebdf399abd9,1695845150175372196,0.150681,0.459671,-1.79863,-0.048828,0.022461,1.00293,2.29843684643427,1.0539387301074832,-110.98530874128272,0.5665259957313538,0.02173605188727379,0.0037841731682419777,-0.8237484097480774
d8025493-41a0-4331-b7f4-900253c028e8,236cefd1-6135-4146-be60-3ebdf399abd9,1695845150178939196,-0.091553,0.274658,-1.493454,-0.024414,0.030762,0.999512,2.2963509890080935,1.055950850307717,-110.98991321863416,0.5664931535720825,0.02173115313053131,0.003758520819246769,-0.8237712979316711
d8025493-41a0-4331-b7f4-900253c028e8,236cefd1-6135-4146-be60-3ebdf399abd9,1695845150182506196,-0.091553,0.213623,-1.859665,-0.035156,0.017578,0.988769,2.296464894759964,1.0550728043008697,-110.99290344552305,0.5664715766906738,0.021727729588747025,0.003764829598367214,-0.8237861394882202
d8025493-41a0-4331-b7f4-900253c028e8,236cefd1-6135-4146-be60-3ebdf399abd9,1695845150186073196,-0.211716,0.337601,-1.741409,-0.030762,0.018066,0.992676,2.296109061871963,1.0537795878297544,-110.99466099465631,0.5664588212966919,0.021718841046094894,0.0037720371037721634,-0.8237951397895813
d8025493-41a0-4331-b7f4-900253c028e8,236cefd1-6135-4146-be60-3ebdf399abd9,1695845150189640196,-0.091553,0.091553,-1.859665,-0.039551,0.015137,1.000488,2.2965465878273985,1.0523322946610019,-110.99688620294562,0.5664426684379578,0.021714909002184868,0.0037841852754354477,-0.8238062858581543
d8025493-41a0-4331-b7f4-900253c028e8,236cefd1-6135-4146-be60-3ebdf399abd9,1695845150193207196,-0.457764,0.091553,-1.741409,-0.040527,0.006348,0.998535,2.2971818660208476,1.0474220620844699,-110.99850709686815,0.5664305090904236,0.021695271134376526,0.0038223275914788246,-0.8238149881362915
d8025493-41a0-4331-b7f4-900253c028e8,236cefd1-6135-4146-be60-3ebdf399abd9,1695845150196774196,-0.396729,-0.030518,-1.79863,-0.041992,0.015625,0.991699,2.2976767747492852,1.0448212892647444,-111.00159413541365,0.5664080381393433,0.02168608456850052,0.003842892125248909,-0.8238306045532227
d8025493-41a0-4331-b7f4-900253c028e8,236cefd1-6135-4146-be60-3ebdf399abd9,1695845150200341196,-0.520706,0.21553,-1.924515,-0.03125,0.011719,1.006836,2.2967851219836146,1.0407721303712991,-111.00540602411256,0.5663802623748779,0.02165979892015457,0.003866882063448429,-0.8238502740859985
d8025493-41a0-4331-b7f4-900253c028e8,236cefd1-6135-4146-be60-3ebdf399abd9,1695845150203908196,-0.396729,0.339508,-1.615524,-0.025879,0.015137,1.002441,2.2952750652447036,1.038083234892182,-111.0079379435562,0.5663618445396423,0.021635744720697403,0.0038782767951488495,-0.8238635063171387
d8025493-41a0-4331-b7f4-900253c028e8,236cefd1-6135-4146-be60-3ebdf399abd9,1695845150207475196,-0.152588,0.396729,-1.924515,-0.024902,0.008789,1.009766,2.29378105551707,1.0350106846698002,-111.00626122288288,0.5663736462593079,0.021609768271446228,0.003893304616212845,-0.823855996131897
d8025493-41a0-4331-b7f4-900253c028e8,236cefd1-6135-4146-be60-3ebdf399abd9,1695845150211042196,-0.457764,0.396729,-1.79863,-0.041992,0.013672,1.008301,2.2959970140466344,1.0317044565330893,-111.00295493526001,0.5663970112800598,0.02160925418138504,0.003928656689822674,-0.8238397836685181
d8025493-41a0-4331-b7f4-900253c028e8,236cefd1-6135-4146-be60-3ebdf399abd9,1695845150214609196,-0.520706,0.398636,-1.436234,-0.032715,0.01709,0.99707,2.296278349232998,1.0289918839457293,-110.99780072409438,0.5664337873458862,0.02159769833087921,0.00395052507519722,-0.8238146901130676
d8025493-41a0-4331-b7f4-900253c028e8,236cefd1-6135-4146-be60-3ebdf399abd9,1695845150218176196,-0.396729,0.522614,-1.676559,-0.032227,0.013184,0.990723,2.297044886565649,1.0259589701695073,-110.99631155075964,0.5664441585540771,0.021588174626231194,0.003976404666900635,-0.8238077163696289
d8025493-41a0-4331-b7f4-900253c028e8,236cefd1-6135-4146-be60-3ebdf399abd9,1695845150221743196,-0.154495,0.520706,-1.493454,-0.037109,0.015137,0.995117,2.2988199938218563,1.0244373381903222,-110.99460728203412,0.5664561986923218,0.021593358367681503,0.003996442072093487,-0.823799192905426
d8025493-41a0-4331-b7f4-900253c028e8,236cefd1-6135-4146-be60-3ebdf399abd9,1695845150225310196,-0.459671,0.642776,-1.558304,-0.037598,0.012207,1.001953,2.301161804078475,1.0209211382563421,-110.99323765491495,0.5664656162261963,0.021592771634459496,0.004033559933304787,-0.8237925171852112
d8025493-41a0-4331-b7f4-900253c028e8,236cefd1-6135-4146-be60-3ebdf399abd9,1695845150228877196,-0.337601,0.886917,-1.558304,-0.037598,-0.001465,0.997559,2.304603626883487,1.0150010322541871,-110.9823248260268,0.5665433406829834,0.021587876603007317,0.004095200449228287,-0.8237389326095581
d8025493-41a0-4331-b7f4-900253c028e8,236cefd1-6135-4146-be60-3ebdf399abd9,1695845150232444196,-0.274658,0.579834,-1.253128,-0.033691,0.018555,0.995605,2.3058493320125493,1.0137711295914158,-110.96819718848303,0.5666447281837463,0.02159024588763714,0.004112863913178444,-0.8236690163612366
d8025493-41a0-4331-b7f4-900253c028e8,236cefd1-6135-4146-be60-3ebdf399abd9,1695845150236011196,-0.032425,0.947952,-1.558304,-0.05127,0.018555,0.999023,2.3124977467301857,1.0135382269615403,-110.95514007201278,0.5667383074760437,0.021636411547660828,0.004149880260229111,-0.8236032724380493
d8025493-41a0-4331-b7f4-900253c028e8,236cefd1-6135-4146-be60-3ebdf399abd9,1695845150239578196,0.091553,0.701904,-1.558304,-0.028809,0.004883,1.005371,2.3131173600799335,1.0108548737483511,-110.94005557095765,0.5668464303016663,0.021627049893140793,0.004175081849098206,-0.8235289454460144
d8025493-41a0-4331-b7f4-900253c028e8,236cefd1-6135-4146-be60-3ebdf399abd9,1695845150243145196,-0.091553,0.701904,-1.676559,-0.032715,0.020508,0.993652,2.3147012676602428,1.0107931027643526,-110.92511751538314,0.566953718662262,0.021637581288814545,0.004186181351542473,-0.823454737663269
d8025493-41a0-4331-b7f4-900253c028e8,236cefd1-6135-4146-be60-3ebdf399abd9,1695845150246712196,-0.032425,0.886917,-1.615524,-0.03125,0.008789,1.003906,2.3166695591039455,1.008427155286411,-110.90986858816174,0.5670629739761353,0.021639466285705566,0.004215805791318417,-0.8233793377876282
d8025493-41a0-4331-b7f4-900253c028e8,236cefd1-6135-4146-be60-3ebdf399abd9,1695845150250279196,-0.091553,0.827789,-1.615524,-0.036133,0.01416,1.000488,2.3194370614307567,1.0069839410969013,-110.8946446490148,0.567172110080719,0.021651649847626686,0.004242749884724617,-0.8233036994934082
d8025493-41a0-4331-b7f4-900253c028e8,236cefd1-6135-4146-be60-3ebdf399abd9,1695845150253846196,0.030518,0.88501,-1.615524,-0.041016,0.006348,0.99707,2.3235603345264098,1.0043937376797272,-110.89948981341878,0.5671368837356567,0.02166864089667797,0.004280855879187584,-0.8233273029327393
d8025493-41a0-4331-b7f4-900253c028e8,236cefd1-6135-4146-be60-3ebdf399abd9,1695845150257707196,0.516891,0.825882,-1.310349,-0.035156,0.004883,0.999023,2.3260875736056383,1.0036699886703275,-110.90706506265181,0.5670822858810425,0.021683502942323685,0.004297131672501564,-0.8233644366264343
d8025493-41a0-4331-b7f4-900253c028e8,236cefd1-6135-4146-be60-3ebdf399abd9,1695845150261568196,0.396729,0.457764,-1.436234,-0.049316,0.01416,1.000488,2.330107332821306,1.0043935488079452,-110.91597135096447,0.5670182108879089,0.021716300398111343,0.004310136660933495,-0.8234076499938965
d8025493-41a0-4331-b7f4-900253c028e8,236cefd1-6135-4146-be60-3ebdf399abd9,1695845150265429196,0.276566,0.825882,-1.371384,-0.055664,-0.005371,0.999023,2.337060315096859,1.000368185633716,-110.90886770574033,0.5670685768127441,0.021746082231402397,0.004374820739030838,-0.8233718276023865
d8025493-41a0-4331-b7f4-900253c028e8,236cefd1-6135-4146-be60-3ebdf399abd9,1695845150269290196,0.211716,0.337601,-1.070023,-0.04248,0.020996,1.003906,2.337388049370319,1.001115914461738,-110.89252568864308,0.5671860575675964,0.021751511842012405,0.004374170675873756,-0.8232907652854919
d8025493-41a0-4331-b7f4-900253c028e8,236cefd1-6135-4146-be60-3ebdf399abd9,1695845150273151196,0.274658,0.522614,-1.615524,-0.028809,0.019043,0.993652,2.3372325430759777,1.002376685015085,-110.88263074783654,0.567257285118103,0.021756254136562347,0.0043662190437316895,-0.8232415914535522
d8025493-41a0-4331-b7f4-900253c028e8,236cefd1-6135-4146-be60-3ebdf399abd9,1695845150277012196,0.030518,0.701904,-1.005173,-0.037109,0.008789,1.00293,2.33640449652344,1.0004744793268743,-110.86397108751007,0.5673911571502686,0.021740183234214783,0.004379330202937126,-0.8231497406959534
d8025493-41a0-4331-b7f4-900253c028e8,236cefd1-6135-4146-be60-3ebdf399abd9,1695845150280873196,-0.213623,0.701904,-1.188278,-0.035156,0.02002,0.988281,2.338444164862837,0.9999169872825426,-110.85015408304069,0.56749027967453,0.021751543506979942,0.00439605675637722,-0.8230809569358826
d8025493-41a0-4331-b7f4-900253c028e8,236cefd1-6135-4146-be60-3ebdf399abd9,1695845150284734196,-0.032425,0.825882,-1.310349,-0.037598,0.018066,1.000977,2.341423885608056,0.9996673623447662,-110.83685569079904,0.5675856471061707,0.021771200001239777,0.004415133967995644,-0.8230146169662476
