section id,recording id,timestamp [ns],gyro x [deg/s],gyro y [deg/s],gyro z [deg/s],acceleration x [G],acceleration y [G],acceleration z [G],roll [deg],pitch [deg],yaw [deg],quaternion w,quaternion x,quaternion y,quaternion z
3a4949b1-4342-440b-ae79-14d47949d470,e9b61042-4af0-4619-81e8-e1bc9229b938,1689708354817752795,2.319336,-2.380371,-0.97847,0.004395,-0.147461,0.993164,-0.0461222954192296,-0.16362656228965616,2.8115644446535555,0.16181443631649017,0.009249179624021053,-0.08436566591262817,0.9831647276878357
3a4949b1-4342-440b-ae79-14d47949d470,e9b61042-4af0-4619-81e8-e1bc9229b938,1689708354822099795,2.197266,-2.13623,-0.734329,0.009277,-0.166504,0.994629,-0.046151071585552525,-0.16346719675519664,2.8111028436213528,0.1620430052280426,0.009257065132260323,-0.08429183810949326,0.9831333756446838
3a4949b1-4342-440b-ae79-14d47949d470,e9b61042-4af0-4619-81e8-e1bc9229b938,1689708354826446795,2.443314,-1.955032,-1.161575,0.020508,-0.154785,1.009277,-0.04621148928124917,-0.16323548794062553,2.8106011134385445,0.1622912734746933,0.009284851141273975,-0.08418523520231247,0.9831013083457947
3a4949b1-4342-440b-ae79-14d47949d470,e9b61042-4af0-4619-81e8-e1bc9229b938,1689708354830793795,2.748489,-1.955032,-1.10054,0.010254,-0.146973,0.994629,-0.04623405845516897,-0.16296193809743859,2.8102075178742396,0.16248874366283417,0.009302104823291302,-0.08405452221632004,0.9830796718597412
3a4949b1-4342-440b-ae79-14d47949d470,e9b61042-4af0-4619-81e8-e1bc9229b938,1689708354835140795,2.443314,-2.443314,-1.22261,0.02002,-0.140625,0.993652,-0.04633268350041188,-0.16268862807320428,2.8098196395343433,0.16268019378185272,0.009357022121548653,-0.08393009006977081,0.9830581545829773
3a4949b1-4342-440b-ae79-14d47949d470,e9b61042-4af0-4619-81e8-e1bc9229b938,1689708354839487795,2.87056,-2.382278,-1.10054,0.007324,-0.151367,0.964844,-0.04638100195192352,-0.16244269821819973,2.809456868602071,0.1628609299659729,0.009386029094457626,-0.08381491899490356,0.9830377697944641
3a4949b1-4342-440b-ae79-14d47949d470,e9b61042-4af0-4619-81e8-e1bc9229b938,1689708354843834795,2.504349,-2.443314,-1.283646,0.017578,-0.145996,0.981445,-0.0464725771788111,-0.16219408692758297,2.8091753537169066,0.1629999727010727,0.00943996012210846,-0.08370158821344376,0.9830238223075867
3a4949b1-4342-440b-ae79-14d47949d470,e9b61042-4af0-4619-81e8-e1bc9229b938,1689708354848181795,2.443314,-2.443314,-1.161575,0.020996,-0.161133,0.975586,-0.04657644469750315,-0.1620114857773279,2.808923240641324,0.16312284767627716,0.009495696984231472,-0.0836215540766716,0.9830097556114197
3a4949b1-4342-440b-ae79-14d47949d470,e9b61042-4af0-4619-81e8-e1bc9229b938,1689708354852528795,2.624512,-2.197266,-1.039505,0.008789,-0.147461,0.979492,-0.046612402410403125,-0.16176308276376852,2.808695119203495,0.16323797404766083,0.009524567984044552,-0.08350355923175812,0.9830003976821899
3a4949b1-4342-440b-ae79-14d47949d470,e9b61042-4af0-4619-81e8-e1bc9229b938,1689708354856875795,2.262115,-2.502441,-0.97847,0.007324,-0.150879,0.989258,-0.04666334681427321,-0.16155029745890495,2.8084744981455034,0.16334815323352814,0.009558163583278656,-0.08340425789356232,0.9829901456832886
3a4949b1-4342-440b-ae79-14d47949d470,e9b61042-4af0-4619-81e8-e1bc9229b938,1689708354861222795,2.260208,-2.382278,-1.22261,0.020996,-0.150391,0.969238,-0.04676385369282562,-0.16134739177655427,2.808164649266296,0.16349993646144867,0.009611604735255241,-0.08331429213285446,0.9829720258712769
3a4949b1-4342-440b-ae79-14d47949d470,e9b61042-4af0-4619-81e8-e1bc9229b938,1689708354865569795,1.89209,-2.319336,-1.10054,0.024902,-0.155273,0.985352,-0.046870833271365535,-0.1611806597223336,2.8078508739930945,0.16365273296833038,0.009665061719715595,-0.08324266225099564,0.9829521179199219
3a4949b1-4342-440b-ae79-14d47949d470,e9b61042-4af0-4619-81e8-e1bc9229b938,1689708354869916795,1.893997,-2.443314,-0.97847,0.008301,-0.155762,0.975586,-0.04692245448156868,-0.16102435313856234,2.8075564865627785,0.16379810869693756,0.009691274724900723,-0.0831715390086174,0.9829337000846863
3a4949b1-4342-440b-ae79-14d47949d470,e9b61042-4af0-4619-81e8-e1bc9229b938,1689708354874263795,1.468658,-2.01416,-0.734329,0.021484,-0.155762,0.987793,-0.046987200698332766,-0.1608939293348356,2.807307169148367,0.1639203280210495,0.009723655879497528,-0.08311399817466736,0.982917845249176
3a4949b1-4342-440b-ae79-14d47949d470,e9b61042-4af0-4619-81e8-e1bc9229b938,1689708354878610795,1.708984,-2.624512,-0.8564,0.028809,-0.149414,0.978516,-0.04712880408658972,-0.16072689471433893,2.80705379150129,0.16404201090335846,0.009796733036637306,-0.08304480463266373,0.9829027056694031
3a4949b1-4342-440b-ae79-14d47949d470,e9b61042-4af0-4619-81e8-e1bc9229b938,1689708354882957795,1.525879,-2.380371,-0.8564,0.005859,-0.137207,0.970215,-0.047165191800282204,-0.1605343041748219,2.8068172145928902,0.16416028141975403,0.009820960462093353,-0.08295436203479767,0.9828903675079346
3a4949b1-4342-440b-ae79-14d47949d470,e9b61042-4af0-4619-81e8-e1bc9229b938,1689708354887304795,1.710892,-2.565384,-0.917435,0.021973,-0.149902,0.978027,-0.04727616942418033,-0.16037068622138068,2.8064829553669446,0.16432294249534607,0.00987538043409586,-0.0828847661614418,0.982868492603302
3a4949b1-4342-440b-ae79-14d47949d470,e9b61042-4af0-4619-81e8-e1bc9229b938,1689708354891651795,1.342773,-2.807617,-0.673294,0.023926,-0.141602,0.983887,-0.04740882391305974,-0.16020150774812777,2.806150628755049,0.16448386013507843,0.00994102656841278,-0.08281423151493073,0.9828468561172485
3a4949b1-4342-440b-ae79-14d47949d470,e9b61042-4af0-4619-81e8-e1bc9229b938,1689708354895998795,1.468658,-2.807617,-0.795364,0.004395,-0.13916,0.985352,-0.04746730556759842,-0.16001391579802104,2.805820842785543,0.1646469384431839,0.009971905499696732,-0.0827285572886467,0.9828264713287354
3a4949b1-4342-440b-ae79-14d47949d470,e9b61042-4af0-4619-81e8-e1bc9229b938,1689708354900345795,0.980377,-2.685547,-0.551224,0.013184,-0.156738,0.98291,-0.0475478431397011,-0.15993150188149155,2.805524064044754,0.16479095816612244,0.010006151162087917,-0.08269619941711426,0.9828047156333923
3a4949b1-4342-440b-ae79-14d47949d470,e9b61042-4af0-4619-81e8-e1bc9229b938,1689708354904692795,1.468658,-2.990723,-0.612259,0.007813,-0.139648,0.982422,-0.04763104799940457,-0.15974903197532164,2.805234148925758,0.16493333876132965,0.010050436481833458,-0.08261490613222122,0.9827871918678284
3a4949b1-4342-440b-ae79-14d47949d470,e9b61042-4af0-4619-81e8-e1bc9229b938,1689708354909039795,1.159668,-2.746582,-0.368118,0.003906,-0.15332,0.990234,-0.04767635473696006,-0.15963756763262163,2.8049676572566167,0.1650644689798355,0.010071098804473877,-0.08256524801254272,0.9827691316604614
3a4949b1-4342-440b-ae79-14d47949d470,e9b61042-4af0-4619-81e8-e1bc9229b938,1689708354913386795,0.917435,-2.382278,-0.673294,0.019531,-0.144043,0.991211,-0.04775734040621278,-0.15950816190368583,2.8047806903129513,0.16515538096427917,0.010114102624356747,-0.08250933140516281,0.982758104801178
3a4949b1-4342-440b-ae79-14d47949d470,e9b61042-4af0-4619-81e8-e1bc9229b938,1689708354917733795,0.97847,-2.748489,-0.429153,0.015137,-0.131348,0.998047,-0.047844524437199235,-0.15932417243500033,2.8046395908577466,0.16522450745105743,0.010166666470468044,-0.08242689818143845,0.9827528595924377
3a4949b1-4342-440b-ae79-14d47949d470,e9b61042-4af0-4619-81e8-e1bc9229b938,1689708354922080795,1.159668,-2.258301,-0.429153,0.015625,-0.147949,0.988281,-0.047898118552231174,-0.1591948778157554,2.804504478967347,0.16529107093811035,0.010198362171649933,-0.08236852288246155,0.9827462434768677
3a4949b1-4342-440b-ae79-14d47949d470,e9b61042-4af0-4619-81e8-e1bc9229b938,1689708354926427795,1.10054,-2.687454,-0.307083,0.022461,-0.148926,0.979004,-0.048010177653524395,-0.15908017575423136,2.8043763804387623,0.1653515100479126,0.010257852263748646,-0.08232211321592331,0.9827393889427185
3a4949b1-4342-440b-ae79-14d47949d470,e9b61042-4af0-4619-81e8-e1bc9229b938,1689708355070658795,-0.242233,-1.771927,-0.246048,0.01416,-0.134277,0.981445,-0.05029795057611488,-0.15282528939510867,2.7338350893376693,0.19993478059768677,0.009102371521294117,-0.07981009781360626,0.9765108823776245
3a4949b1-4342-440b-ae79-14d47949d470,e9b61042-4af0-4619-81e8-e1bc9229b938,1689708355102118795,0.123978,-2.134323,0.0,0.018066,-0.145996,0.994629,-0.05033669684318659,-0.15278941102921517,2.7323826731195093,0.20064304769039154,0.009066994301974773,-0.07980307191610336,0.9763665199279785
3a4949b1-4342-440b-ae79-14d47949d470,e9b61042-4af0-4619-81e8-e1bc9229b938,1689708355133578795,0.612259,-2.199173,-0.062943,0.018066,-0.143066,0.986328,-0.05038199141269946,-0.15271032939768261,2.7309422206921914,0.20134598016738892,0.009039734490215778,-0.07977557182312012,0.9762243032455444
3a4949b1-4342-440b-ae79-14d47949d470,e9b61042-4af0-4619-81e8-e1bc9229b938,1689708355165038795,0.366211,-2.502441,-0.246048,0.02002,-0.146484,0.992187,-0.05045873328338901,-0.15265865990512187,2.729498108049753,0.20204879343509674,0.009024900384247303,-0.07976463437080383,0.9760801196098328
3a4949b1-4342-440b-ae79-14d47949d470,e9b61042-4af0-4619-81e8-e1bc9229b938,1689708355181220795,0.366211,-2.563477,-0.123978,0.02832,-0.143066,0.977539,-0.05057296746456666,-0.1526030423983382,2.7280931930077457,0.2027309685945511,0.009030348621308804,-0.07975541800260544,0.9759393334388733
3a4949b1-4342-440b-ae79-14d47949d470,e9b61042-4af0-4619-81e8-e1bc9229b938,1689708355197402795,-0.181198,-2.134323,0.059128,0.020996,-0.138672,0.988281,-0.05062260590718565,-0.15256737555929878,2.726720302256131,0.20339958369731903,0.009003516286611557,-0.07974925637245178,0.9758009910583496
3a4949b1-4342-440b-ae79-14d47949d470,e9b61042-4af0-4619-81e8-e1bc9229b938,1689708355213584795,0.429153,-2.317429,-0.185013,0.016113,-0.129395,0.981445,-0.050671024479897214,-0.1524542261428737,2.7253454535696884,0.20407068729400635,0.008984068408608437,-0.07970521599054337,0.9756646156311035
3a4949b1-4342-440b-ae79-14d47949d470,e9b61042-4af0-4619-81e8-e1bc9229b938,1689708355229766795,0.307083,-2.622604,0.120163,0.01709,-0.132812,0.999023,-0.050739164593013586,-0.15235451702237338,2.723929468241107,0.20476070046424866,0.00897127017378807,-0.07966993749141693,0.975523054599762
3a4949b1-4342-440b-ae79-14d47949d470,e9b61042-4af0-4619-81e8-e1bc9229b938,1689708355245948795,0.061035,-2.868652,0.0,0.022461,-0.144531,0.986328,-0.05085003265661517,-0.15232410762715112,2.7224958193293824,0.20545612275600433,0.008971411734819412,-0.0796729177236557,0.9753766059875488
3a4949b1-4342-440b-ae79-14d47949d470,e9b61042-4af0-4619-81e8-e1bc9229b938,1689708355262130795,0.366211,-2.380371,0.303268,0.03418,-0.133789,0.981934,-0.05096555822231147,-0.15223403413292763,2.721087880096142,0.20613993704319,0.008981109596788883,-0.0796472355723381,0.97523432970047
3a4949b1-4342-440b-ae79-14d47949d470,e9b61042-4af0-4619-81e8-e1bc9229b938,1689708355278312795,0.492096,-2.624512,0.303268,0.024902,-0.119629,0.988769,-0.051062241089919205,-0.15207839414759936,2.7200606335747044,0.20664013922214508,0.009003712795674801,-0.07958600670099258,0.9751332402229309
3a4949b1-4342-440b-ae79-14d47949d470,e9b61042-4af0-4619-81e8-e1bc9229b938,1689708355294494795,0.797272,-2.685547,0.181198,0.037109,-0.134766,0.989258,-0.05121092839567935,-0.15195593879816935,2.719100080659341,0.20710504055023193,0.00905088521540165,-0.07954607158899307,0.9750373959541321
3a4949b1-4342-440b-ae79-14d47949d470,e9b61042-4af0-4619-81e8-e1bc9229b938,1689708355310676795,0.492096,-2.197266,0.242233,0.029297,-0.12207,0.984375,-0.05129280686172935,-0.15181264905209785,2.7181701249264467,0.2075580656528473,0.00906895287334919,-0.07948897778987885,0.9749455451965332
3a4949b1-4342-440b-ae79-14d47949d470,e9b61042-4af0-4619-81e8-e1bc9229b938,1689708355326858795,0.917435,-2.134323,0.303268,0.032227,-0.119629,0.983887,-0.051380079019915086,-0.15162901809254425,2.7172555439376067,0.2080041617155075,0.009094594977796078,-0.07941275835037231,0.9748564958572388
3a4949b1-4342-440b-ae79-14d47949d470,e9b61042-4af0-4619-81e8-e1bc9229b938,1689708355343040795,1.037598,-1.89209,0.120163,0.035156,-0.143555,1.002441,-0.051458221556491275,-0.1515149672180409,2.7161972203823526,0.20851923525333405,0.009102758951485157,-0.0793701708316803,0.9747498035430908
3a4949b1-4342-440b-ae79-14d47949d470,e9b61042-4af0-4619-81e8-e1bc9229b938,1689708355346211795,0.795364,-1.955032,0.181198,0.021973,-0.147949,0.985352,-0.05149301151082599,-0.15144667030265077,2.715130379548789,0.20903918147087097,0.009084641002118587,-0.07934539765119553,0.9746406078338623
3a4949b1-4342-440b-ae79-14d47949d470,e9b61042-4af0-4619-81e8-e1bc9229b938,1689708355349382795,1.285553,-1.525879,-0.062943,0.020996,-0.141602,0.994141,-0.051492525266117015,-0.15131205025154357,2.714050447339005,0.20956820249557495,0.009055926464498043,-0.07928469777107239,0.9745322465896606
3a4949b1-4342-440b-ae79-14d47949d470,e9b61042-4af0-4619-81e8-e1bc9229b938,1689708355352553795,1.405716,-1.588821,-0.062943,0.041992,-0.141602,0.993652,-0.05157693469258199,-0.15116841846584733,2.713084548828273,0.2100384384393692,0.009074117988348007,-0.0792280063033104,0.9744354486465454
3a4949b1-4342-440b-ae79-14d47949d470,e9b61042-4af0-4619-81e8-e1bc9229b938,1689708355355724795,1.159668,-1.403809,0.120163,0.026367,-0.148438,0.990234,-0.05158619503092806,-0.15107240499591315,2.7121717598155284,0.21048475801944733,0.009052754379808903,-0.07918637990951538,0.9743427038192749
3a4949b1-4342-440b-ae79-14d47949d470,e9b61042-4af0-4619-81e8-e1bc9229b938,1689708355358895795,1.342773,-1.586914,-0.123978,0.043945,-0.129883,0.99707,-0.05167777974518053,-0.15088822558363238,2.71124342491877,0.21093717217445374,0.009080382995307446,-0.07911059260368347,0.9742507338523865
3a4949b1-4342-440b-ae79-14d47949d470,e9b61042-4af0-4619-81e8-e1bc9229b938,1689708355362066795,1.588821,-1.405716,-0.185013,0.03418,-0.135742,0.990723,-0.051719651616506934,-0.15071190938445264,2.710065304793267,0.21151301264762878,0.009073156863451004,-0.07903455197811127,0.9741321206092834
3a4949b1-4342-440b-ae79-14d47949d470,e9b61042-4af0-4619-81e8-e1bc9229b938,1689708355365237795,1.283646,-1.588821,-0.307083,0.031738,-0.147461,0.983398,-0.05176890014275681,-0.1506068660397126,2.708834963285243,0.2121124565601349,0.009059859439730644,-0.07899422943592072,0.9740051627159119
3a4949b1-4342-440b-ae79-14d47949d470,e9b61042-4af0-4619-81e8-e1bc9229b938,1689708355368408795,1.405716,-1.588821,-0.368118,0.040527,-0.141113,0.998047,-0.05184929483808442,-0.15046042652225414,2.7075950086774534,0.21271613240242004,0.009065885096788406,-0.07893713563680649,0.9738780856132507
3a4949b1-4342-440b-ae79-14d47949d470,e9b61042-4af0-4619-81e8-e1bc9229b938,1689708355371579795,1.285553,-1.831055,-0.307083,0.024414,-0.142578,1.0,-0.05188518224719837,-0.15032883970078717,2.7062077230608654,0.21339291334152222,0.009042893536388874,-0.07888322323560715,0.9737346172332764
3a4949b1-4342-440b-ae79-14d47949d470,e9b61042-4af0-4619-81e8-e1bc9229b938,1689708355374750795,1.405716,-1.646042,-0.185013,0.022949,-0.131836,0.998047,-0.0519004262633232,-0.15015002297072413,2.704807778459772,0.21407756209373474,0.009014573879539967,-0.07880419492721558,0.9735909700393677
3a4949b1-4342-440b-ae79-14d47949d470,e9b61042-4af0-4619-81e8-e1bc9229b938,1689708355377921795,1.220703,-1.647949,-0.917435,0.018555,-0.142578,0.982422,-0.05191037795963351,-0.15003196171207017,2.7033577296684372,0.21478544175624847,0.00897518452256918,-0.07875436544418335,0.9734394550323486
3a4949b1-4342-440b-ae79-14d47949d470,e9b61042-4af0-4619-81e8-e1bc9229b938,1689708355381092795,1.037598,-2.13623,-0.673294,0.02002,-0.142578,0.973633,-0.05196184477304629,-0.14993401148341254,2.702331406232509,0.21528495848178864,0.008970544673502445,-0.07871687412261963,0.9733321666717529
3a4949b1-4342-440b-ae79-14d47949d470,e9b61042-4af0-4619-81e8-e1bc9229b938,1689708355384263795,0.854492,-2.01416,-0.8564,0.025391,-0.138184,0.978027,-0.05202573331648092,-0.14983043279596306,2.701375421768462,0.2157498151063919,0.008975381031632423,-0.07867768406867981,0.9732323884963989
3a4949b1-4342-440b-ae79-14d47949d470,e9b61042-4af0-4619-81e8-e1bc9229b938,1689708355387434795,0.795364,-2.077103,-0.8564,0.023926,-0.134277,0.981445,-0.052087760542585765,-0.1497153319571503,2.7004438751152597,0.21620306372642517,0.008981571532785892,-0.07863260805606842,0.9731353521347046
3a4949b1-4342-440b-ae79-14d47949d470,e9b61042-4af0-4619-81e8-e1bc9229b938,1689708355390605795,0.671387,-2.258301,-1.039505,0.025391,-0.131836,0.979004,-0.052171604014081406,-0.14960132756443925,2.6995077743091875,0.2166575938463211,0.008998128585517406,-0.07859046757221222,0.9730375409126282
3a4949b1-4342-440b-ae79-14d47949d470,e9b61042-4af0-4619-81e8-e1bc9229b938,1689708355393824795,0.492096,-2.13623,-0.8564,0.036621,-0.134277,0.977539,-0.05228713574857484,-0.1495119638966419,2.6983865611592095,0.2172003835439682,0.009020143188536167,-0.0785646140575409,0.9729183912277222
3a4949b1-4342-440b-ae79-14d47949d470,e9b61042-4af0-4619-81e8-e1bc9229b938,1689708355397043795,0.307083,-1.893997,-0.917435,0.020996,-0.12793,0.974121,-0.05232559419550756,-0.14941505468520513,2.6972373271381542,0.21775992214679718,0.009004439227283001,-0.07852687686681747,0.9727964997291565
3a4949b1-4342-440b-ae79-14d47949d470,e9b61042-4af0-4619-81e8-e1bc9229b938,1689708355400262795,0.429153,-1.771927,-1.10054,0.035156,-0.135742,0.98584,-0.052408461886525246,-0.14933081189631198,2.6960678625119456,0.21832722425460815,0.009008178487420082,-0.07850024104118347,0.9726714491844177
3a4949b1-4342-440b-ae79-14d47949d470,e9b61042-4af0-4619-81e8-e1bc9229b938,1689708355403481795,0.429153,-1.771927,-0.97847,0.011719,-0.148926,0.976562,-0.05240186903978808,-0.1493026770104225,2.69513866022078,0.21877995133399963,0.00897163338959217,-0.07849002629518509,0.9725708961486816
3a4949b1-4342-440b-ae79-14d47949d470,e9b61042-4af0-4619-81e8-e1bc9229b938,1689708355406700795,-0.12207,-2.075195,-0.795364,0.035156,-0.140137,0.986816,-0.05250416477496091,-0.1492773510382877,2.694257933444346,0.21920473873615265,0.008989628404378891,-0.07849287986755371,0.9724748134613037
3a4949b1-4342-440b-ae79-14d47949d470,e9b61042-4af0-4619-81e8-e1bc9229b938,1689708355409919795,-0.305176,-1.89209,-1.10054,0.02002,-0.14502,0.98584,-0.05253814161304777,-0.14928400823724824,2.693377374724432,0.2196314036846161,0.008970844559371471,-0.0785037949681282,0.9723778367042542
3a4949b1-4342-440b-ae79-14d47949d470,e9b61042-4af0-4619-81e8-e1bc9229b938,1689708355413138795,-0.181198,-1.466751,-0.97847,0.020996,-0.125977,0.980957,-0.05254298609985791,-0.1492133770593278,2.692181828337988,0.22021391987800598,0.008934184908866882,-0.07847537100315094,0.9722487330436707
3a4949b1-4342-440b-ae79-14d47949d470,e9b61042-4af0-4619-81e8-e1bc9229b938,1689708355416357795,-0.364304,-1.405716,-0.917435,0.017578,-0.12207,0.985352,-0.05252869608137078,-0.1491400396841862,2.6909348933000867,0.22082215547561646,0.008886544033885002,-0.0784437358379364,0.9721137285232544
3a4949b1-4342-440b-ae79-14d47949d470,e9b61042-4af0-4619-81e8-e1bc9229b938,1689708355419576795,-0.362396,-1.525879,-1.161575,0.034668,-0.144043,0.988281,-0.0525911409416822,-0.14914612610722244,2.689656049190131,0.2214411199092865,0.008866047486662865,-0.07845927029848099,0.971971869468689
3a4949b1-4342-440b-ae79-14d47949d470,e9b61042-4af0-4619-81e8-e1bc9229b938,1689708355422795795,-0.488281,-1.037598,-0.917435,0.017578,-0.132324,0.998047,-0.05254649527683225,-0.14911353997089943,2.6885080614042733,0.22200143337249756,0.008802993223071098,-0.07844357192516327,0.9718458652496338
3a4949b1-4342-440b-ae79-14d47949d470,e9b61042-4af0-4619-81e8-e1bc9229b938,1689708355426014795,-0.669479,-1.10054,-0.917435,0.018066,-0.131348,0.97998,-0.05251225097441058,-0.14910133062603453,2.687386212057308,0.22254812717437744,0.008743737824261189,-0.07843875885009766,0.9717217683792114
3a4949b1-4342-440b-ae79-14d47949d470,e9b61042-4af0-4619-81e8-e1bc9229b938,1689708355429233795,-0.488281,-1.342773,-0.673294,0.036621,-0.129883,1.001465,-0.05256030554837003,-0.1490582235230522,2.686286509304975,0.22308142483234406,0.008728841319680214,-0.0784279927611351,0.9716004729270935
3a4949b1-4342-440b-ae79-14d47949d470,e9b61042-4af0-4619-81e8-e1bc9229b938,1689708355432452795,-0.852585,-1.10054,-0.97847,0.030762,-0.134766,0.98584,-0.05257416028541842,-0.14906889615105487,2.6851022943871676,0.22365590929985046,0.00868791714310646,-0.0784398764371872,0.9714677929878235
3a4949b1-4342-440b-ae79-14d47949d470,e9b61042-4af0-4619-81e8-e1bc9229b938,1689708355435671795,-0.852585,-1.157761,-0.97847,0.026855,-0.135742,0.987305,-0.052577349498059686,-0.14908249594105513,2.683915183168781,0.22423207759857178,0.008641354739665985,-0.0784519761800766,0.9713343977928162
3a4949b1-4342-440b-ae79-14d47949d470,e9b61042-4af0-4619-81e8-e1bc9229b938,1689708355438890795,-0.915527,-0.915527,-1.039505,0.024414,-0.13623,0.988281,-0.052553313677312787,-0.14910169066237566,2.682730892753575,0.2248077392578125,0.008581035770475864,-0.07846368849277496,0.9712009429931641
3a4949b1-4342-440b-ae79-14d47949d470,e9b61042-4af0-4619-81e8-e1bc9229b938,1689708355442109795,-1.03569,-1.340866,-0.795364,0.022949,-0.137207,0.991211,-0.052552678044225816,-0.14913317841679907,2.6815742001288356,0.22536875307559967,0.00853173527866602,-0.07848384231328964,0.9710696935653687
3a4949b1-4342-440b-ae79-14d47949d470,e9b61042-4af0-4619-81e8-e1bc9229b938,1689708355445328795,-0.669479,-0.669479,-0.673294,0.019531,-0.132812,0.989258,-0.052428428198474486,-0.14907414775583902,2.6806287983105896,0.22583387792110443,0.008441094309091568,-0.078445203602314,0.970965564250946
3a4949b1-4342-440b-ae79-14d47949d470,e9b61042-4af0-4619-81e8-e1bc9229b938,1689708355448547795,-1.098633,-1.098633,-1.10054,0.02002,-0.132812,0.978027,-0.05240483236063082,-0.14910007362412186,2.6796294888919507,0.22631937265396118,0.008387460373342037,-0.07845931500196457,0.9708518385887146
3a4949b1-4342-440b-ae79-14d47949d470,e9b61042-4af0-4619-81e8-e1bc9229b938,1689708355451766795,-1.281738,-0.915527,-0.97847,0.025391,-0.134277,0.980469,-0.052386253600812026,-0.1491441704715318,2.678648877770964,0.22679515182971954,0.008334888145327568,-0.07848269492387772,0.9707393646240234
3a4949b1-4342-440b-ae79-14d47949d470,e9b61042-4af0-4619-81e8-e1bc9229b938,1689708355455508795,-1.157761,-0.917435,-0.917435,0.020508,-0.133789,0.994629,-0.052345472235054306,-0.14916950908131332,2.678097060568771,0.22706404328346252,0.008290514349937439,-0.0784926488995552,0.970676064491272
3a4949b1-4342-440b-ae79-14d47949d470,e9b61042-4af0-4619-81e8-e1bc9229b938,1689708355459250795,-1.281738,-1.098633,-0.97847,0.024414,-0.131836,0.981445,-0.052337043807487355,-0.1492036415476485,2.6776250084762903,0.2272927463054657,0.00826395396143198,-0.07851019501686096,0.9706213474273682
3a4949b1-4342-440b-ae79-14d47949d470,e9b61042-4af0-4619-81e8-e1bc9229b938,1689708355462992795,-1.281738,-1.281738,-0.917435,0.01709,-0.128906,0.98291,-0.05231344850512354,-0.14922638890645107,2.6771822134468404,0.2275080680847168,0.008232495747506618,-0.07852036505937576,0.9705703854560852
3a4949b1-4342-440b-ae79-14d47949d470,e9b61042-4af0-4619-81e8-e1bc9229b938,1689708355466734795,-1.340866,-0.97847,-1.283646,0.018066,-0.135742,1.0,-0.05227142067131703,-0.14926812337114828,2.676256702483008,0.22795794904232025,0.00817092601209879,-0.07853960990905762,0.970463752746582
3a4949b1-4342-440b-ae79-14d47949d470,e9b61042-4af0-4619-81e8-e1bc9229b938,1689708355470476795,-1.281738,-1.098633,-0.8564,0.015625,-0.131836,0.975098,-0.052229538876216904,-0.149306260096322,2.6752791730929832,0.22843308746814728,0.008107786998152733,-0.07855729758739471,0.9703510999679565
3a4949b1-4342-440b-ae79-14d47949d470,e9b61042-4af0-4619-81e8-e1bc9229b938,1689708355474218795,-1.403809,-1.037598,-0.8564,0.030762,-0.131836,0.991211,-0.05223788310790384,-0.1493439656965965,2.6742818838752678,0.22891578078269958,0.00806827936321497,-0.07858055830001831,0.9702358245849609
3a4949b1-4342-440b-ae79-14d47949d470,e9b61042-4af0-4619-81e8-e1bc9229b938,1689708355477960795,-1.464844,-0.854492,-0.97847,0.033691,-0.115234,0.993164,-0.05224464940679595,-0.14932228837198588,2.6734049172342353,0.22934138774871826,0.008039630949497223,-0.07857435941696167,0.9701360464096069
3a4949b1-4342-440b-ae79-14d47949d470,e9b61042-4af0-4619-81e8-e1bc9229b938,1689708355481702795,-1.218796,-1.157761,-1.10054,0.020508,-0.131836,0.99707,-0.0522244815662088,-0.14934214285199526,2.6725591385774536,0.22975200414657593,0.007994296960532665,-0.07858505845069885,0.9700383543968201
3a4949b1-4342-440b-ae79-14d47949d470,e9b61042-4af0-4619-81e8-e1bc9229b938,1689708355485444795,-1.281738,-1.403809,-0.8564,0.019531,-0.133301,0.986816,-0.05221841070353671,-0.14937874362366307,2.671743575342214,0.23014700412750244,0.007955026812851429,-0.07860534638166428,0.9699434041976929
3a4949b1-4342-440b-ae79-14d47949d470,e9b61042-4af0-4619-81e8-e1bc9229b938,1689708355489186795,-1.096725,-1.466751,-0.917435,0.012207,-0.115723,0.991211,-0.052188699366746215,-0.14933309772953016,2.670844255804997,0.2305852621793747,0.007910625077784061,-0.07858337461948395,0.969841480255127
3a4949b1-4342-440b-ae79-14d47949d470,e9b61042-4af0-4619-81e8-e1bc9229b938,1689708355492928795,-1.098633,-1.586914,-1.344681,0.032227,-0.129395,0.984375,-0.052251009456057616,-0.14934045064429455,2.6698897776099786,0.23104548454284668,0.00790246482938528,-0.07859790325164795,0.969730794429779
3a4949b1-4342-440b-ae79-14d47949d470,e9b61042-4af0-4619-81e8-e1bc9229b938,1689708355496670795,-1.098633,-1.525879,-0.795364,0.027344,-0.130371,0.988769,-0.05228273117047203,-0.14935120518049702,2.668983740797676,0.23148328065872192,0.007880977354943752,-0.07861035317182541,0.9696255922317505
3a4949b1-4342-440b-ae79-14d47949d470,e9b61042-4af0-4619-81e8-e1bc9229b938,1689708355500412795,-0.915527,-1.403809,-1.10054,0.015137,-0.13623,0.983887,-0.052262774964655895,-0.14937196380462145,2.668068351552314,0.23192739486694336,0.007832872681319714,-0.07862169295549393,0.9695188999176025
3a4949b1-4342-440b-ae79-14d47949d470,e9b61042-4af0-4619-81e8-e1bc9229b938,1689708355504154795,-1.218796,-1.466751,-0.8564,0.026367,-0.135742,0.996582,-0.052285283626027454,-0.14940733297180225,2.667053234385989,0.23241780698299408,0.0077997008338570595,-0.07864540070295334,0.9693998098373413
3a4949b1-4342-440b-ae79-14d47949d470,e9b61042-4af0-4619-81e8-e1bc9229b938,1689708355507896795,-0.852585,-1.466751,-1.039505,0.03418,-0.133789,0.985352,-0.052341701710005524,-0.14941299236228914,2.666005019504931,0.2329235076904297,0.0077851517125964165,-0.07865878939628601,0.9692774415016174
3a4949b1-4342-440b-ae79-14d47949d470,e9b61042-4af0-4619-81e8-e1bc9229b938,1689708355511638795,-0.976562,-1.403809,-0.97847,0.024902,-0.134277,0.991699,-0.05235594167792182,-0.14942659252874185,2.664969684295043,0.2334243804216385,0.007749723270535469,-0.07867105305194855,0.9691562652587891
3a4949b1-4342-440b-ae79-14d47949d470,e9b61042-4af0-4619-81e8-e1bc9229b938,1689708355515380795,-0.91362,-1.588821,-0.97847,0.011719,-0.129395,0.989746,-0.05233394535075936,-0.14941873089838678,2.664292140926277,0.2337537258863449,0.0077133458107709885,-0.0786672979593277,0.969077467918396
3a4949b1-4342-440b-ae79-14d47949d470,e9b61042-4af0-4619-81e8-e1bc9229b938,1689708355519122795,-0.793457,-1.831055,-0.917435,0.024902,-0.131348,0.976562,-0.05238267275633058,-0.1494163659018538,2.6636862822941043,0.23404541611671448,0.007713401690125465,-0.07867418974637985,0.9690064787864685
3a4949b1-4342-440b-ae79-14d47949d470,e9b61042-4af0-4619-81e8-e1bc9229b938,1689708355522864795,-0.976562,-1.464844,-1.039505,0.031738,-0.135254,0.983887,-0.05242975790542185,-0.14943757902279423,2.6630855762005563,0.23433414101600647,0.007710056379437447,-0.07869228720664978,0.9689352512359619
3a4949b1-4342-440b-ae79-14d47949d470,e9b61042-4af0-4619-81e8-e1bc9229b938,1689708355526606795,-0.976562,-1.281738,-0.8564,0.021973,-0.133789,0.99707,-0.05242078627764736,-0.14944680266739577,2.662242626029254,0.2347426563501358,0.007671442814171314,-0.07869894057512283,0.9688361287117004
3a4949b1-4342-440b-ae79-14d47949d470,e9b61042-4af0-4619-81e8-e1bc9229b938,1689708355530348795,-1.281738,-1.281738,-0.8564,0.020996,-0.138672,0.987305,-0.0524102945774726,-0.1495027524059404,2.6613513933192228,0.2351735681295395,0.007624605670571327,-0.07872819155454636,0.9687296152114868
3a4949b1-4342-440b-ae79-14d47949d470,e9b61042-4af0-4619-81e8-e1bc9229b938,1689708355534090795,-0.976562,-1.586914,-0.795364,0.017578,-0.132324,0.98584,-0.05240916786424984,-0.14951301951604765,2.660463952509755,0.2356032133102417,0.0075878966599702835,-0.07873640209436417,0.9686248302459717
3a4949b1-4342-440b-ae79-14d47949d470,e9b61042-4af0-4619-81e8-e1bc9229b938,1689708355537766795,-1.220703,-1.525879,-0.8564,0.016602,-0.135742,0.991699,-0.05239942806956416,-0.1495508139645681,2.659974737230405,0.23583970963954926,0.007559389807283878,-0.07875539362430573,0.9685659408569336
3a4949b1-4342-440b-ae79-14d47949d470,e9b61042-4af0-4619-81e8-e1bc9229b938,1689708355541442795,-1.218796,-1.466751,-0.673294,0.021484,-0.133301,0.986816,-0.05240266490237076,-0.1495827098032723,2.659580252038176,0.23602992296218872,0.007541603408753872,-0.07877269387245178,0.9685183763504028
3a4949b1-4342-440b-ae79-14d47949d470,e9b61042-4af0-4619-81e8-e1bc9229b938,1689708355545118795,-0.730515,-1.646042,-0.673294,0.018555,-0.130371,0.998535,-0.05240587208016968,-0.14956016912888104,2.6592090938134203,0.23621001839637756,0.0075312415137887,-0.07876356691122055,0.9684752821922302
3a4949b1-4342-440b-ae79-14d47949d470,e9b61042-4af0-4619-81e8-e1bc9229b938,1689708355548794795,-0.852585,-1.340866,-0.673294,0.021484,-0.131348,0.985352,-0.05239994717916799,-0.14955794036845285,2.658526204557413,0.23654097318649292,0.0075017428025603294,-0.07876435667276382,0.9683946371078491
3a4949b1-4342-440b-ae79-14d47949d470,e9b61042-4af0-4619-81e8-e1bc9229b938,1689708355552470795,-0.79155,-1.466751,-0.185013,0.026367,-0.12793,0.992676,-0.05241484923269819,-0.14953599775742776,2.657820517980647,0.2368825376033783,0.00748380646109581,-0.07875815033912659,0.9683117866516113
3a4949b1-4342-440b-ae79-14d47949d470,e9b61042-4af0-4619-81e8-e1bc9229b938,1689708355556146795,-0.793457,-1.342773,-0.551224,0.00293,-0.129883,0.99707,-0.052334184042977655,-0.14951818764703967,2.6570930715487955,0.23723827302455902,0.0074182599782943726,-0.07874268293380737,0.9682264924049377
3a4949b1-4342-440b-ae79-14d47949d470,e9b61042-4af0-4619-81e8-e1bc9229b938,1689708355559822795,-0.732422,-1.708984,-0.307083,0.009277,-0.130371,0.995605,-0.05230323011839454,-0.14949927091057125,2.6563837728597735,0.23758326470851898,0.007377633824944496,-0.07873248308897018,0.9681430459022522
3a4949b1-4342-440b-ae79-14d47949d470,e9b61042-4af0-4619-81e8-e1bc9229b938,1689708355563498795,-0.610352,-1.403809,-0.429153,0.035156,-0.129395,0.983398,-0.05235200751513537,-0.14947325604671363,2.6557356617626535,0.2378956377506256,0.007378866896033287,-0.0787280946969986,0.9680666327476501
3a4949b1-4342-440b-ae79-14d47949d470,e9b61042-4af0-4619-81e8-e1bc9229b938,1689708355567174795,-0.364304,-1.771927,-0.307083,0.023438,-0.12793,0.981445,-0.0523823415407615,-0.14942530023579254,2.655125439687424,0.23819082975387573,0.007375335320830345,-0.07871076464653015,0.9679955244064331
3a4949b1-4342-440b-ae79-14d47949d470,e9b61042-4af0-4619-81e8-e1bc9229b938,1689708355570850795,-0.242233,-1.466751,-0.368118,0.02002,-0.128906,1.006836,-0.05237194149130139,-0.14935763593245183,2.6545217317883787,0.23848488926887512,0.007354738190770149,-0.07867903262376785,0.9679258465766907
3a4949b1-4342-440b-ae79-14d47949d470,e9b61042-4af0-4619-81e8-e1bc9229b938,1689708355574526795,-0.179291,-1.220703,-0.307083,0.033203,-0.138672,0.988769,-0.05230075937729059,-0.14931951428029194,2.6536530865699004,0.23890888690948486,0.007290744222700596,-0.07865528762340546,0.9678236842155457
3a4949b1-4342-440b-ae79-14d47949d470,e9b61042-4af0-4619-81e8-e1bc9229b938,1689708355578202795,0.062943,-0.97847,0.120163,0.023926,-0.136719,0.982422,-0.05219562835915515,-0.14927811330651794,2.6527375686328294,0.23935692012310028,0.007208904251456261,-0.07862602174282074,0.9677159786224365
3a4949b1-4342-440b-ae79-14d47949d470,e9b61042-4af0-4619-81e8-e1bc9229b938,1689708355581878795,-0.12207,-1.342773,-0.185013,0.021973,-0.146973,0.994141,-0.05208109334566961,-0.14926870468498368,2.6518186405403963,0.23980623483657837,0.007118509151041508,-0.07861104607582092,0.9676066040992737
3a4949b1-4342-440b-ae79-14d47949d470,e9b61042-4af0-4619-81e8-e1bc9229b938,1689708355585554795,-0.179291,-1.342773,0.0,0.027344,-0.135742,0.978516,-0.0519906481796301,-0.14922592440015925,2.6509902890304877,0.24021145701408386,0.007047412917017937,-0.07858245074748993,0.9675089120864868
3a4949b1-4342-440b-ae79-14d47949d470,e9b61042-4af0-4619-81e8-e1bc9229b938,1689708355589230795,-0.242233,-1.405716,-0.123978,0.026367,-0.129883,0.978516,-0.05200428915951821,-0.14917932920775157,2.650176280349928,0.2406056821346283,0.0070277247577905655,-0.07856443524360657,0.9674125909805298
3a4949b1-4342-440b-ae79-14d47949d470,e9b61042-4af0-4619-81e8-e1bc9229b938,1689708355592906795,-0.427246,-1.403809,-0.062943,0.020996,-0.138184,0.988769,-0.05199478987134878,-0.1491723490905165,2.649379400563751,0.24099165201187134,0.006992675364017487,-0.07856271415948868,0.9673168659210205
3a4949b1-4342-440b-ae79-14d47949d470,e9b61042-4af0-4619-81e8-e1bc9229b938,1689708355596582795,-0.179291,-1.220703,-0.062943,0.033203,-0.129883,0.976074,-0.05192754577509284,-0.1491091942259538,2.649155514130898,0.24110393226146698,0.0069590965285897255,-0.0785248726606369,0.9672922492027283
3a4949b1-4342-440b-ae79-14d47949d470,e9b61042-4af0-4619-81e8-e1bc9229b938,1689708355600258795,-0.427246,-1.159668,0.120163,0.025391,-0.137207,0.980957,-0.05182970660819914,-0.1490712026462111,2.6490522930580624,0.24115851521492004,0.006912377662956715,-0.0784950777888298,0.9672814011573792
3a4949b1-4342-440b-ae79-14d47949d470,e9b61042-4af0-4619-81e8-e1bc9229b938,1689708355603934795,-0.303268,-1.466751,-0.123978,0.029785,-0.133301,0.988769,-0.05185964207674344,-0.1490367022400087,2.648960336422124,0.24120256304740906,0.0069274697452783585,-0.07848233729600906,0.9672713279724121
3a4949b1-4342-440b-ae79-14d47949d470,e9b61042-4af0-4619-81e8-e1bc9229b938,1689708355607610795,-0.12207,-1.342773,0.120163,0.03125,-0.121094,0.980469,-0.05178455439580858,-0.14893878088420237,2.648312823657585,0.24152077734470367,0.00687775295227766,-0.07842820137739182,0.9671966433525085
3a4949b1-4342-440b-ae79-14d47949d470,e9b61042-4af0-4619-81e8-e1bc9229b938,1689708355611286795,-0.364304,-1.157761,-0.368118,0.038574,-0.140625,1.0,-0.05173388948374191,-0.14890310160323708,2.647552675341578,0.24189111590385437,0.006827831268310547,-0.07840744405984879,0.9671061635017395
3a4949b1-4342-440b-ae79-14d47949d470,e9b61042-4af0-4619-81e8-e1bc9229b938,1689708355614962795,-0.427246,-0.915527,-0.368118,0.029785,-0.143066,1.004395,-0.05164896867536149,-0.14887449573364223,2.6467804260528416,0.24226847290992737,0.006760011427104473,-0.07838597148656845,0.9670138955116272
3a4949b1-4342-440b-ae79-14d47949d470,e9b61042-4af0-4619-81e8-e1bc9229b938,1689708355618638795,-0.362396,-1.037598,-0.490189,0.031738,-0.132812,0.982422,-0.05157613259796362,-0.14881994134670642,2.646007639118689,0.24264612793922424,0.006701233796775341,-0.0783533900976181,0.9669222831726074
3a4949b1-4342-440b-ae79-14d47949d470,e9b61042-4af0-4619-81e8-e1bc9229b938,1689708355622314795,-0.852585,-0.852585,-0.490189,0.025879,-0.134766,0.983398,-0.05148104398885158,-0.1487724472527758,2.645263642859066,0.24301056563854218,0.006631970405578613,-0.07832138985395432,0.966833770275116
3a4949b1-4342-440b-ae79-14d47949d470,e9b61042-4af0-4619-81e8-e1bc9229b938,1689708355625990795,-0.610352,-1.098633,-0.612259,0.027344,-0.137207,0.990723,-0.05148062903961938,-0.14877377477370352,2.6444798756225842,0.24338941276073456,0.006600917316973209,-0.0783245712518692,0.9667384624481201
3a4949b1-4342-440b-ae79-14d47949d470,e9b61042-4af0-4619-81e8-e1bc9229b938,1689708355629666795,-0.610352,-0.732422,-0.673294,0.013184,-0.131348,0.988281,-0.051336388383121295,-0.148711339346615,2.643759613035291,0.24374455213546753,0.006510714069008827,-0.07827921956777573,0.9666532278060913
3a4949b1-4342-440b-ae79-14d47949d470,e9b61042-4af0-4619-81e8-e1bc9229b938,1689708355784625795,0.123978,-2.134323,0.0,0.016113,-0.139648,0.989258,-0.049549035963243275,-0.14747654679919692,2.6126417239232618,0.25885114073753357,0.004593639634549618,-0.07754594832658768,0.9627884030342102
3a4949b1-4342-440b-ae79-14d47949d470,e9b61042-4af0-4619-81e8-e1bc9229b938,1689708355826583795,0.246048,-1.893997,0.120163,0.02002,-0.133301,0.991211,-0.04957900265144955,-0.14740652942860236,2.612063404287993,0.2591298818588257,0.004594833590090275,-0.07751748710870743,0.9627156853675842
3a4949b1-4342-440b-ae79-14d47949d470,e9b61042-4af0-4619-81e8-e1bc9229b938,1689708355868541795,0.183105,-2.075195,0.120163,0.031738,-0.136719,0.978027,-0.04966999204506928,-0.14736119753022783,2.6116240783795273,0.2593387961387634,0.004627562128007412,-0.07750849425792694,0.962660014629364
3a4949b1-4342-440b-ae79-14d47949d470,e9b61042-4af0-4619-81e8-e1bc9229b938,1689708355889618795,0.244141,-1.831055,0.364304,0.015625,-0.13916,0.98291,-0.049676992696572456,-0.14731913513398875,2.6112447268479997,0.259522020816803,0.004621762782335281,-0.07749005407094955,0.9626121520996094
3a4949b1-4342-440b-ae79-14d47949d470,e9b61042-4af0-4619-81e8-e1bc9229b938,1689708355910695795,0.246048,-2.134323,0.364304,0.025391,-0.137207,0.984863,-0.04974393019006575,-0.14726860065935865,2.6108689105992258,0.2597014009952545,0.004646066576242447,-0.07747531682252884,0.9625648260116577
3a4949b1-4342-440b-ae79-14d47949d470,e9b61042-4af0-4619-81e8-e1bc9229b938,1689708355931772795,0.061035,-1.708984,0.364304,0.026855,-0.130371,0.987305,-0.049783565332145605,-0.1472051340439205,2.6105365195870145,0.25986120104789734,0.00466062780469656,-0.0774507224559784,0.9625236392021179
3a4949b1-4342-440b-ae79-14d47949d470,e9b61042-4af0-4619-81e8-e1bc9229b938,1689708355952849795,0.0,-1.586914,0.608444,0.028809,-0.12793,0.973633,-0.049821231772727674,-0.14714578886711785,2.6102322876755872,0.26000744104385376,0.004674791358411312,-0.07742779701948166,0.9624859094619751
3a4949b1-4342-440b-ae79-14d47949d470,e9b61042-4af0-4619-81e8-e1bc9229b938,1689708355973926795,0.244141,-1.708984,0.242233,0.016602,-0.125977,0.978027,-0.049824469563386174,-0.14705741991250745,2.60991224275541,0.26016324758529663,0.00467560812830925,-0.07738648355007172,0.9624471068382263
3a4949b1-4342-440b-ae79-14d47949d470,e9b61042-4af0-4619-81e8-e1bc9229b938,1689708355995003795,0.183105,-2.01416,0.486374,0.026855,-0.146484,0.989258,-0.04988507033020686,-0.14704522348021856,2.609861716303366,0.26018548011779785,0.004704424180090427,-0.07738862186670303,0.9624407887458801
3a4949b1-4342-440b-ae79-14d47949d470,e9b61042-4af0-4619-81e8-e1bc9229b938,1689708356016080795,-0.059128,-1.710892,0.242233,0.014648,-0.133301,0.995605,-0.04987739649680952,-0.14699802158071956,2.6098504653481833,0.26019221544265747,0.004706518724560738,-0.0773649588227272,0.9624408483505249
3a4949b1-4342-440b-ae79-14d47949d470,e9b61042-4af0-4619-81e8-e1bc9229b938,1689708356018601795,-0.059128,-2.134323,0.242233,0.025879,-0.129395,0.98584,-0.04994679056930758,-0.1469414846503617,2.609843217703777,0.26019424200057983,0.0047470880672335625,-0.07734682410955429,0.9624415636062622
3a4949b1-4342-440b-ae79-14d47949d470,e9b61042-4af0-4619-81e8-e1bc9229b938,1689708356021122795,-0.120163,-1.466751,0.669479,0.021973,-0.137207,0.982422,-0.049946240289067946,-0.14692260780080552,2.6096214042756944,0.260301411151886,0.00474073551595211,-0.07733820378780365,0.9624133110046387
3a4949b1-4342-440b-ae79-14d47949d470,e9b61042-4af0-4619-81e8-e1bc9229b938,1689708356023643795,-0.242233,-1.771927,0.364304,0.024414,-0.125,0.992676,-0.04997958100617986,-0.1468603919699188,2.609326578563867,0.2604433298110962,0.004753595218062401,-0.07731333374977112,0.9623768925666809
3a4949b1-4342-440b-ae79-14d47949d470,e9b61042-4af0-4619-81e8-e1bc9229b938,1689708356026164795,-0.730515,-1.893997,0.547409,0.029785,-0.135742,0.987305,-0.05004179501248217,-0.14687895284586716,2.6090330523390084,0.26058176159858704,0.004769732244312763,-0.0773310586810112,0.9623379111289978
3a4949b1-4342-440b-ae79-14d47949d470,e9b61042-4af0-4619-81e8-e1bc9229b938,1689708356028685795,-0.669479,-1.588821,0.120163,0.036621,-0.134766,0.978516,-0.050113273118858076,-0.14689226172774242,2.608855336165644,0.2606642246246338,0.004795491695404053,-0.07734719663858414,0.9623141288757324
3a4949b1-4342-440b-ae79-14d47949d470,e9b61042-4af0-4619-81e8-e1bc9229b938,1689708356031206795,-0.915527,-2.13623,0.0,0.026855,-0.133301,0.981445,-0.05018957315515993,-0.14691663540317032,2.60870452626275,0.26073330640792847,0.004823150113224983,-0.07736922055482864,0.9622935056686401
3a4949b1-4342-440b-ae79-14d47949d470,e9b61042-4af0-4619-81e8-e1bc9229b938,1689708356033727795,-0.730515,-2.134323,0.120163,0.021484,-0.14502,0.972168,-0.05024540910139841,-0.14697670700179377,2.608573758557287,0.2607927620410919,0.004837013781070709,-0.07740569114685059,0.9622743725776672
3a4949b1-4342-440b-ae79-14d47949d470,e9b61042-4af0-4619-81e8-e1bc9229b938,1689708356036248795,-0.730515,-1.893997,0.059128,0.021973,-0.133301,0.989746,-0.0502817450393848,-0.14698270535091207,2.6084409100614083,0.26085513830184937,0.00484856404364109,-0.0774136334657669,0.9622567892074585
3a4949b1-4342-440b-ae79-14d47949d470,e9b61042-4af0-4619-81e8-e1bc9229b938,1689708356038769795,-1.096725,-1.771927,-0.246048,0.02002,-0.123535,0.977539,-0.05030723516546959,-0.14698538374478778,2.607915995098115,0.2611066401004791,0.004840152338147163,-0.07741951942443848,0.9621881246566772
3a4949b1-4342-440b-ae79-14d47949d470,e9b61042-4af0-4619-81e8-e1bc9229b938,1689708356041290795,-0.732422,-1.525879,0.059128,0.01709,-0.133301,0.984375,-0.05029807772517998,-0.14699447531682439,2.6073469933603133,0.26138052344322205,0.004812519997358322,-0.0774240642786026,0.9621135592460632
3a4949b1-4342-440b-ae79-14d47949d470,e9b61042-4af0-4619-81e8-e1bc9229b938,1689708356043811795,-0.669479,-2.077103,-0.123978,0.022949,-0.13916,0.986328,-0.050354447469159035,-0.14701891014795734,2.606750555402869,0.2616647183895111,0.004813304170966148,-0.07744461297988892,0.9620346426963806
3a4949b1-4342-440b-ae79-14d47949d470,e9b61042-4af0-4619-81e8-e1bc9229b938,1689708356046332795,-1.098633,-2.075195,-0.307083,0.027344,-0.134766,0.994629,-0.05042806934971115,-0.14705359558371855,2.6063219243668203,0.2618672847747803,0.004827513359487057,-0.07747194916009903,0.9619772434234619
3a4949b1-4342-440b-ae79-14d47949d470,e9b61042-4af0-4619-81e8-e1bc9229b938,1689708356049509795,-0.976562,-1.831055,-0.123978,0.025879,-0.131836,0.988769,-0.050476413321663464,-0.14707197128587463,2.6059481438810024,0.2620447874069214,0.004833847284317017,-0.077488012611866,0.961927592754364
3a4949b1-4342-440b-ae79-14d47949d470,e9b61042-4af0-4619-81e8-e1bc9229b938,1689708356052686795,-0.852585,-2.077103,-0.123978,0.030762,-0.135254,0.996094,-0.05056017310391688,-0.14708967320240426,2.605582691235986,0.2622169256210327,0.004857615567743778,-0.07750838249921799,0.9618788957595825
3a4949b1-4342-440b-ae79-14d47949d470,e9b61042-4af0-4619-81e8-e1bc9229b938,1689708356055863795,-0.488281,-2.01416,-0.307083,0.035156,-0.145996,0.996094,-0.050657630258655634,-0.1471190982274321,2.605373264267797,0.26231321692466736,0.004892461001873016,-0.07753580808639526,0.9618502855300903
3a4949b1-4342-440b-ae79-14d47949d470,e9b61042-4af0-4619-81e8-e1bc9229b938,1689708356059040795,-0.669479,-2.077103,-0.123978,0.033691,-0.132324,1.009766,-0.050749100249795294,-0.1471042592618696,2.6052140559051313,0.2623865604400635,0.004932252690196037,-0.07754106819629669,0.961829662322998
3a4949b1-4342-440b-ae79-14d47949d470,e9b61042-4af0-4619-81e8-e1bc9229b938,1689708356062217795,-0.425339,-2.077103,0.059128,0.025879,-0.138184,0.994141,-0.05081126719027316,-0.14710249500904682,2.6050817795819428,0.2624478042125702,0.00495725404471159,-0.07754870504140854,0.9618121981620789
3a4949b1-4342-440b-ae79-14d47949d470,e9b61042-4af0-4619-81e8-e1bc9229b938,1689708356065394795,-0.425339,-1.771927,-0.307083,0.026855,-0.126465,0.992676,-0.050858230298324016,-0.14705632560810297,2.6047198487380117,0.26262104511260986,0.004971951246261597,-0.07753358781337738,0.9617660641670227
3a4949b1-4342-440b-ae79-14d47949d470,e9b61042-4af0-4619-81e8-e1bc9229b938,1689708356068571795,-0.244141,-1.708984,-0.429153,0.03418,-0.124512,0.986816,-0.0509308080638954,-0.14699174493336373,2.6043073014767204,0.26281803846359253,0.00499945692718029,-0.07751312851905823,0.9617137312889099
3a4949b1-4342-440b-ae79-14d47949d470,e9b61042-4af0-4619-81e8-e1bc9229b938,1689708356071748795,-0.12207,-1.647949,-0.307083,0.015137,-0.132812,0.995117,-0.05092267635242115,-0.1469457031071781,2.6039103475634535,0.2630102336406708,0.004986302927136421,-0.07749093323945999,0.9616630673408508
3a4949b1-4342-440b-ae79-14d47949d470,e9b61042-4af0-4619-81e8-e1bc9229b938,1689708356074925795,-0.425339,-1.10054,-0.551224,0.022949,-0.134766,0.992187,-0.05081718000819136,-0.14690041727699352,2.6039120653873957,0.2630144953727722,0.004941676743328571,-0.0774553045630455,0.9616649746894836
3a4949b1-4342-440b-ae79-14d47949d470,e9b61042-4af0-4619-81e8-e1bc9229b938,1689708356078102795,-0.305176,-1.098633,-0.429153,0.032227,-0.134277,0.986328,-0.05074859642474909,-0.1468565754822385,2.6039842233457926,0.26298341155052185,0.004917340353131294,-0.0774250477552414,0.9616760611534119
3a4949b1-4342-440b-ae79-14d47949d470,e9b61042-4af0-4619-81e8-e1bc9229b938,1689708356081279795,-0.425339,-0.97847,-0.368118,0.025879,-0.129883,0.994141,-0.05065454297535384,-0.14679226040459592,2.604074742698003,0.26294493675231934,0.004884189926087856,-0.07738156616687775,0.9616902470588684
3a4949b1-4342-440b-ae79-14d47949d470,e9b61042-4af0-4619-81e8-e1bc9229b938,1689708356084456795,-0.427246,-0.915527,-0.551224,0.03125,-0.119141,0.998047,-0.05058058135946211,-0.1466856811979081,2.6041647453834695,0.26290684938430786,0.004866310395300388,-0.07732042670249939,0.9617056846618652
3a4949b1-4342-440b-ae79-14d47949d470,e9b61042-4af0-4619-81e8-e1bc9229b938,1689708356087633795,-0.488281,-0.732422,-0.8564,0.033691,-0.131348,0.993164,-0.05051719443954012,-0.14662784516546926,2.6037794087646344,0.2630958557128906,0.004828643053770065,-0.07728524506092072,0.9616569876670837
3a4949b1-4342-440b-ae79-14d47949d470,e9b61042-4af0-4619-81e8-e1bc9229b938,1689708356090810795,-0.610352,-0.915527,-0.917435,0.035645,-0.125977,0.984375,-0.05054287762648423,-0.1465973960118762,2.603228365890798,0.26336047053337097,0.004823764786124229,-0.07727532833814621,0.9615854024887085
3a4949b1-4342-440b-ae79-14d47949d470,e9b61042-4af0-4619-81e8-e1bc9229b938,1689708356093987795,-0.669479,-0.612259,-1.10054,0.041016,-0.130859,0.980957,-0.05056868056345722,-0.14659100442054854,2.6026452045802744,0.26363998651504517,0.004814488813281059,-0.07727706432342529,0.9615086913108826
3a4949b1-4342-440b-ae79-14d47949d470,e9b61042-4af0-4619-81e8-e1bc9229b938,1689708356097250795,-0.730515,-0.612259,-1.161575,0.040527,-0.134277,0.988769,-0.05059172497161084,-0.14659748149444393,2.602063663328376,0.26391851902008057,0.004802231676876545,-0.07728461176156998,0.9614317417144775
3a4949b1-4342-440b-ae79-14d47949d470,e9b61042-4af0-4619-81e8-e1bc9229b938,1689708356100513795,-0.732422,-0.549316,-1.039505,0.019531,-0.125,0.991211,-0.05047458850023434,-0.14651761872381328,2.6015895457331153,0.2641527056694031,0.004738292656838894,-0.07723192870616913,0.9613719582557678
3a4949b1-4342-440b-ae79-14d47949d470,e9b61042-4af0-4619-81e8-e1bc9229b938,1689708356103776795,-1.03569,-0.429153,-0.97847,0.021973,-0.119629,0.990723,-0.05041103197444144,-0.1464926542373099,2.601039453147273,0.26442012190818787,0.004689844325184822,-0.07721284031867981,0.9613001942634583
3a4949b1-4342-440b-ae79-14d47949d470,e9b61042-4af0-4619-81e8-e1bc9229b938,1689708356107039795,-0.732422,-0.549316,-1.283646,0.015625,-0.129395,0.993164,-0.05033541462940682,-0.1464790475797692,2.6003879868696065,0.26473644375801086,0.004630181007087231,-0.07719781994819641,0.9612146615982056
3a4949b1-4342-440b-ae79-14d47949d470,e9b61042-4af0-4619-81e8-e1bc9229b938,1689708356110302795,-0.793457,-0.366211,-1.405716,0.018555,-0.126953,0.978516,-0.050261684410352774,-0.14646844734757816,2.5997125794125484,0.2650641202926636,0.004570097662508488,-0.0771845206618309,0.9611256718635559
3a4949b1-4342-440b-ae79-14d47949d470,e9b61042-4af0-4619-81e8-e1bc9229b938,1689708356113565795,-0.974655,-0.490189,-1.039505,0.032227,-0.144043,0.998047,-0.05024195130331299,-0.14652594636410476,2.5990590535990052,0.2653776705265045,0.004527662880718708,-0.07721099257469177,0.9610372185707092
3a4949b1-4342-440b-ae79-14d47949d470,e9b61042-4af0-4619-81e8-e1bc9229b938,1689708356116828795,-1.281738,-0.671387,-1.527786,0.024902,-0.135742,0.991699,-0.050214965956093094,-0.14657698185759896,2.598520910426854,0.2656361758708954,0.0044870516285300255,-0.07723312079906464,0.9609642028808594
3a4949b1-4342-440b-ae79-14d47949d470,e9b61042-4af0-4619-81e8-e1bc9229b938,1689708356120091795,-0.976562,-0.610352,-1.527786,0.02002,-0.137695,1.002441,-0.05016261762813113,-0.14660629999330702,2.5980201107639926,0.26587817072868347,0.0044386135414242744,-0.07724135369062424,0.9608968496322632
3a4949b1-4342-440b-ae79-14d47949d470,e9b61042-4af0-4619-81e8-e1bc9229b938,1689708356123354795,-1.098633,-0.671387,-1.893997,0.031738,-0.128418,0.993164,-0.050165731498220366,-0.1466134886125423,2.5974939295477233,0.2661306858062744,0.004418819211423397,-0.07724638283252716,0.9608266353607178
3a4949b1-4342-440b-ae79-14d47949d470,e9b61042-4af0-4619-81e8-e1bc9229b938,1689708356126617795,-0.91362,-0.429153,-1.588821,0.019043,-0.137207,0.983887,-0.050100175872271904,-0.1466463728371743,2.5975829243740334,0.2660897374153137,0.00438633281737566,-0.07725324481725693,0.9608376026153564
3a4949b1-4342-440b-ae79-14d47949d470,e9b61042-4af0-4619-81e8-e1bc9229b938,1689708356129880795,-0.850677,-0.549316,-1.771927,0.022461,-0.13623,1.000977,-0.05005588970475334,-0.14666061509765957,2.5977730621028106,0.26599979400634766,0.004370478913187981,-0.07725377380847931,0.9608625173568726
3a4949b1-4342-440b-ae79-14d47949d470,e9b61042-4af0-4619-81e8-e1bc9229b938,1689708356133143795,-1.03569,-0.181198,-1.771927,0.021973,-0.145508,0.994141,-0.049983688627341656,-0.1467271214726071,2.597984406834705,0.2658995985984802,0.004334990866482258,-0.07727563381195068,0.9608886241912842
3a4949b1-4342-440b-ae79-14d47949d470,e9b61042-4af0-4619-81e8-e1bc9229b938,1689708356136406795,-1.157761,-0.307083,-1.710892,0.012207,-0.160156,0.988769,-0.049884109495148744,-0.14686088732059074,2.5982078526076564,0.26579317450523376,0.004277766682207584,-0.07732611894607544,0.9609142541885376
3a4949b1-4342-440b-ae79-14d47949d470,e9b61042-4af0-4619-81e8-e1bc9229b938,1689708356139669795,-0.976562,-0.610352,-1.710892,0.023926,-0.14502,0.991211,-0.049852148355509746,-0.14692201091040843,2.5978365601285294,0.26597145199775696,0.004239825531840324,-0.07735199481248856,0.9608630537986755
3a4949b1-4342-440b-ae79-14d47949d470,e9b61042-4af0-4619-81e8-e1bc9229b938,1689708356142932795,-0.91362,-0.307083,-1.955032,0.021973,-0.123047,1.004395,-0.04978996839610737,-0.1468879304162456,2.5973328845714647,0.26621657609939575,0.004195068962872028,-0.07732842862606049,0.9607972502708435
3a4949b1-4342-440b-ae79-14d47949d470,e9b61042-4af0-4619-81e8-e1bc9229b938,1689708356146195795,-0.976562,-0.12207,-2.016068,0.013672,-0.146973,1.0,-0.04968406789455434,-0.14695051048985386,2.596808625211694,0.26647114753723145,0.004115481860935688,-0.07734544575214386,0.9607256650924683
3a4949b1-4342-440b-ae79-14d47949d470,e9b61042-4af0-4619-81e8-e1bc9229b938,1689708356149458795,-0.488281,-0.244141,-2.016068,0.029297,-0.141602,0.984863,-0.04965007208879008,-0.14696399436532295,2.596403330235298,0.26666685938835144,0.004081652499735355,-0.07734821736812592,0.9606712460517883
3a4949b1-4342-440b-ae79-14d47949d470,e9b61042-4af0-4619-81e8-e1bc9229b938,1689708356152721795,-0.91362,-0.307083,-1.955032,0.02832,-0.150391,1.002441,-0.049613370165555636,-0.14703293807403428,2.596029768686301,0.2668462097644806,0.004040255211293697,-0.07737716287374496,0.9606192708015442
3a4949b1-4342-440b-ae79-14d47949d470,e9b61042-4af0-4619-81e8-e1bc9229b938,1689708356155984795,-0.669479,-0.490189,-2.138138,0.008789,-0.14502,0.978027,-0.04952249367744851,-0.1470765738525576,2.5956611776028726,0.26702579855918884,0.0039764512330293655,-0.07738670706748962,0.960568904876709
3a4949b1-4342-440b-ae79-14d47949d470,e9b61042-4af0-4619-81e8-e1bc9229b938,1689708356159247795,-0.79155,-0.307083,-1.955032,0.017578,-0.134277,0.986816,-0.049448111749703476,-0.14708456531330844,2.5950383954055725,0.26732760667800903,0.003915547393262386,-0.07738183438777924,0.960485577583313
3a4949b1-4342-440b-ae79-14d47949d470,e9b61042-4af0-4619-81e8-e1bc9229b938,1689708356162378795,-0.79155,-0.001907,-2.138138,0.015137,-0.137207,0.994629,-0.049342201279283585,-0.14709857898435447,2.5943543246665937,0.26765990257263184,0.0038363225758075714,-0.07737571746110916,0.9603938460350037
3a4949b1-4342-440b-ae79-14d47949d470,e9b61042-4af0-4619-81e8-e1bc9229b938,1689708356165509795,-0.547409,-0.490189,-2.260208,0.018066,-0.141602,0.981445,-0.04928783506143239,-0.1471184849784729,2.593654200619317,0.26799774169921875,0.0037804367020726204,-0.07737931609153748,0.9602996110916138
3a4949b1-4342-440b-ae79-14d47949d470,e9b61042-4af0-4619-81e8-e1bc9229b938,1689708356168640795,-0.364304,-0.612259,-2.321243,0.016113,-0.145508,0.985352,-0.04923588231270464,-0.1471357346704724,2.5931707478813797,0.26823151111602783,0.0037344377487897873,-0.07738153636455536,0.9602342844009399
3a4949b1-4342-440b-ae79-14d47949d470,e9b61042-4af0-4619-81e8-e1bc9229b938,1689708356171771795,-0.305176,-0.427246,-1.771927,0.029297,-0.127441,0.986328,-0.04921429474451788,-0.14708188577633305,2.5927689381555434,0.26842641830444336,0.00371585413813591,-0.07735355943441391,0.9601821899414062
3a4949b1-4342-440b-ae79-14d47949d470,e9b61042-4af0-4619-81e8-e1bc9229b938,1689708356174902795,-0.427246,-0.915527,-1.771927,0.018555,-0.130859,1.002441,-0.049185621741891054,-0.14704159240575626,2.5923850181123482,0.26861271262168884,0.00369272381067276,-0.07733109593391418,0.9601320028305054
3a4949b1-4342-440b-ae79-14d47949d470,e9b61042-4af0-4619-81e8-e1bc9229b938,1689708356178033795,0.0,-0.671387,-1.893997,0.013184,-0.145996,0.979004,-0.04912365061164025,-0.14703858630273073,2.592199310123101,0.2687043249607086,0.0036562029272317886,-0.07732167094945908,0.9601072669029236
3a4949b1-4342-440b-ae79-14d47949d470,e9b61042-4af0-4619-81e8-e1bc9229b938,1689708356181164795,-0.305176,-0.854492,-1.710892,0.01709,-0.138672,0.996582,-0.04908548490411993,-0.1470220169914825,2.592066576200482,0.26876989006996155,0.003634999506175518,-0.07730884104967117,0.9600899815559387
3a4949b1-4342-440b-ae79-14d47949d470,e9b61042-4af0-4619-81e8-e1bc9229b938,1689708356184295795,-0.364304,-0.669479,-2.077103,0.014648,-0.138672,0.978027,-0.049031910631458266,-0.14701910876490842,2.5919156886273504,0.26884445548057556,0.0036038458347320557,-0.07730051875114441,0.9600698947906494
3a4949b1-4342-440b-ae79-14d47949d470,e9b61042-4af0-4619-81e8-e1bc9229b938,1689708356187426795,-0.244141,-0.732422,-1.405716,0.012207,-0.141113,0.981934,-0.048965485693587184,-0.1470165886403693,2.5918204376061644,0.2688927948474884,0.0035686250776052475,-0.07729054987430573,0.9600573182106018
3a4949b1-4342-440b-ae79-14d47949d470,e9b61042-4af0-4619-81e8-e1bc9229b938,1689708356190557795,-0.305176,-0.915527,-1.649857,0.012207,-0.130859,0.976562,-0.0489169486494999,-0.14698229751486494,2.5914257580772886,0.2690848708152771,0.0035347454249858856,-0.07726828008890152,0.9600054025650024
3a4949b1-4342-440b-ae79-14d47949d470,e9b61042-4af0-4619-81e8-e1bc9229b938,1689708356193688795,0.061035,-0.732422,-1.832962,0.011719,-0.130371,0.990234,-0.04885218079692449,-0.14691045493140056,2.590965571954855,0.2693098187446594,0.0034956755116581917,-0.07722592353820801,0.9599458575248718
3a4949b1-4342-440b-ae79-14d47949d470,e9b61042-4af0-4619-81e8-e1bc9229b938,1689708356196819795,0.0,-1.220703,-1.710892,0.021973,-0.137695,0.98291,-0.048863725019405814,-0.14687517008308557,2.5905007883007753,0.2695332169532776,0.003488084301352501,-0.07721137255430222,0.9598843455314636
3a4949b1-4342-440b-ae79-14d47949d470,e9b61042-4af0-4619-81e8-e1bc9229b938,1689708356199950795,0.368118,-0.795364,-1.527786,0.019043,-0.125,0.982422,-0.04882963572144207,-0.1467658750865742,2.590414373362008,0.26957836747169495,0.003483313135802746,-0.07715452462434769,0.959876298904419
3a4949b1-4342-440b-ae79-14d47949d470,e9b61042-4af0-4619-81e8-e1bc9229b938,1689708356203081795,0.0,-1.037598,-1.588821,0.01416,-0.124023,0.989746,-0.04879493463648458,-0.1466768132922065,2.5903978463022845,0.2695895731449127,0.0034781768918037415,-0.07710717618465424,0.9598769545555115
3a4949b1-4342-440b-ae79-14d47949d470,e9b61042-4af0-4619-81e8-e1bc9229b938,1689708356206212795,-0.242233,-1.157761,-1.649857,0.020996,-0.127441,0.983398,-0.04879768851234285,-0.1466224199917408,2.590386530044561,0.26959607005119324,0.0034864917397499084,-0.07708148658275604,0.9598771929740906
3a4949b1-4342-440b-ae79-14d47949d470,e9b61042-4af0-4619-81e8-e1bc9229b938,1689708356209343795,0.185013,-1.466751,-1.466751,0.022949,-0.146484,0.993164,-0.048827437359857326,-0.1466014429701451,2.5900447635632418,0.2697594165802002,0.0034904535859823227,-0.07707604020833969,0.9598316550254822
3a4949b1-4342-440b-ae79-14d47949d470,e9b61042-4af0-4619-81e8-e1bc9229b938,1689708356212474795,-0.059128,-0.917435,-1.344681,0.012695,-0.141113,1.0,-0.0487726975181306,-0.14657797228715647,2.5896502672903057,0.26995134353637695,0.0034521957859396935,-0.0770580843091011,0.9597793221473694
3a4949b1-4342-440b-ae79-14d47949d470,e9b61042-4af0-4619-81e8-e1bc9229b938,1689708356215605795,-0.059128,-1.10054,-1.283646,0.008789,-0.12207,0.983887,-0.04872061418924574,-0.14649034212592585,2.5892512632135265,0.2701467275619507,0.003423812799155712,-0.07700973004102707,0.9597283005714417
3a4949b1-4342-440b-ae79-14d47949d470,e9b61042-4af0-4619-81e8-e1bc9229b938,1689708356218736795,-0.305176,-1.647949,-1.283646,0.023438,-0.121582,0.987305,-0.0487650375634051,-0.14641846710736114,2.588944266782076,0.2702938914299011,0.003443143330514431,-0.0769818052649498,0.9596890211105347
3a4949b1-4342-440b-ae79-14d47949d470,e9b61042-4af0-4619-81e8-e1bc9229b938,1689708356221867795,0.062943,-1.283646,-1.283646,0.015625,-0.132812,0.996094,-0.04874995671649189,-0.14635662559468543,2.5886653585815926,0.2704296410083771,0.0034336401149630547,-0.07695060223340988,0.9596533179283142
3a4949b1-4342-440b-ae79-14d47949d470,e9b61042-4af0-4619-81e8-e1bc9229b938,1689708356224998795,-0.059128,-1.646042,-0.97847,0.013184,-0.125488,0.972168,-0.0487543438845846,-0.1462912769044958,2.5884161665473866,0.2705504596233368,0.003435106948018074,-0.07692030072212219,0.9596216678619385
3a4949b1-4342-440b-ae79-14d47949d470,e9b61042-4af0-4619-81e8-e1bc9229b938,1689708356228129795,-0.305176,-1.831055,-1.10054,0.00293,-0.122559,0.990723,-0.04873142318848718,-0.14622309205821032,2.5881169681208975,0.27069637179374695,0.0034219492226839066,-0.07688502967357635,0.9595834016799927
3a4949b1-4342-440b-ae79-14d47949d470,e9b61042-4af0-4619-81e8-e1bc9229b938,1689708356231260795,-0.488281,-1.586914,-1.10054,0.026367,-0.134766,0.979492,-0.0487818910784724,-0.14622031203110228,2.587796507602977,0.27084824442863464,0.003434223122894764,-0.07689107954502106,0.9595400094985962
3a4949b1-4342-440b-ae79-14d47949d470,e9b61042-4af0-4619-81e8-e1bc9229b938,1689708356234391795,-0.610352,-1.647949,-0.97847,0.019043,-0.128418,0.981445,-0.048807147882351985,-0.14620248559737403,2.587489646614508,0.2709948718547821,0.0034369928762316704,-0.07688648253679276,0.9594990015029907
3a4949b1-4342-440b-ae79-14d47949d470,e9b61042-4af0-4619-81e8-e1bc9229b938,1689708356237522795,-0.730515,-1.466751,-1.10054,0.02002,-0.130371,0.989258,-0.04882219083883318,-0.14619646648844678,2.58717480745768,0.27114546298980713,0.0034329332411289215,-0.07688617706298828,0.9594565033912659
3a4949b1-4342-440b-ae79-14d47949d470,e9b61042-4af0-4619-81e8-e1bc9229b938,1689708356392171795,-1.340866,-1.340866,-0.673294,0.024902,-0.126953,0.987305,-0.05200648686733699,-0.14568006394902322,2.575410639218349,0.27667322754859924,0.004578031599521637,-0.07709857821464539,0.9578552842140198
3a4949b1-4342-440b-ae79-14d47949d470,e9b61042-4af0-4619-81e8-e1bc9229b938,1689708356434208795,-1.098633,-1.159668,-0.795364,0.027344,-0.137695,1.0,-0.05200904972681163,-0.1457259137131605,2.5752239614342862,0.2767615020275116,0.004565631039440632,-0.0771212950348854,0.9578279852867126
3a4949b1-4342-440b-ae79-14d47949d470,e9b61042-4af0-4619-81e8-e1bc9229b938,1689708356476245795,-1.155853,-1.220703,-0.307083,0.026855,-0.148438,0.981934,-0.0520125975120671,-0.14582825156444282,2.5753141623048705,0.27671584486961365,0.0045564668253064156,-0.07717053592205048,0.9578372836112976
3a4949b1-4342-440b-ae79-14d47949d470,e9b61042-4af0-4619-81e8-e1bc9229b938,1689708356499182795,-1.281738,-1.403809,-0.734329,0.01709,-0.130371,0.996582,-0.05199450486278287,-0.14586233807953497,2.5754245910135563,0.2766628861427307,0.0045472849160432816,-0.07718408852815628,0.9578515291213989
3a4949b1-4342-440b-ae79-14d47949d470,e9b61042-4af0-4619-81e8-e1bc9229b938,1689708356522119795,-1.464844,-1.220703,-0.368118,0.023438,-0.132324,0.992676,-0.051983756484198375,-0.14592078327756608,2.57556727003024,0.2765936553478241,0.004539448767900467,-0.07721024006605148,0.9578694105148315
3a4949b1-4342-440b-ae79-14d47949d470,e9b61042-4af0-4619-81e8-e1bc9229b938,1689708356545056795,-1.218796,-1.466751,-0.429153,0.032715,-0.123535,0.981934,-0.05202956944346783,-0.14593313229416435,2.575479155225228,0.2766337990760803,0.004556262865662575,-0.07722268253564835,0.9578567743301392
3a4949b1-4342-440b-ae79-14d47949d470,e9b61042-4af0-4619-81e8-e1bc9229b938,1689708356567993795,-1.098633,-1.586914,-0.185013,0.020508,-0.146484,1.001465,-0.05203116962181412,-0.14601268019020658,2.575373550477797,0.2766825258731842,0.004541794769465923,-0.07726120203733444,0.9578396081924438
3a4949b1-4342-440b-ae79-14d47949d470,e9b61042-4af0-4619-81e8-e1bc9229b938,1689708356590930795,-0.91362,-1.283646,-0.368118,0.026855,-0.137207,0.998047,-0.05203654053714543,-0.14604439790430562,2.575242925246118,0.27674415707588196,0.00453487504273653,-0.07727741450071335,0.9578205347061157
3a4949b1-4342-440b-ae79-14d47949d470,e9b61042-4af0-4619-81e8-e1bc9229b938,1689708356613867795,-1.096725,-1.466751,-0.185013,0.023438,-0.132324,0.983398,-0.052043674732463394,-0.14608037043899388,2.575078844893293,0.27682164311408997,0.0045269085094332695,-0.07729598134756088,0.9577966928482056
3a4949b1-4342-440b-ae79-14d47949d470,e9b61042-4af0-4619-81e8-e1bc9229b938,1689708356636804795,-1.157761,-1.283646,0.059128,0.022949,-0.121582,0.993652,-0.0520303424748713,-0.14607598118148007,2.574925036475295,0.2768959105014801,0.0045151980593800545,-0.07729238271713257,0.9577755928039551
3a4949b1-4342-440b-ae79-14d47949d470,e9b61042-4af0-4619-81e8-e1bc9229b938,1689708356639933795,-1.157761,-1.771927,-0.185013,0.021973,-0.130859,0.995605,-0.05205254526125279,-0.14610426557318154,2.5747524543520046,0.2769770622253418,0.004515189677476883,-0.07730937749147415,0.9577507376670837
3a4949b1-4342-440b-ae79-14d47949d470,e9b61042-4af0-4619-81e8-e1bc9229b938,1689708356643062795,-0.730515,-1.283646,0.0,0.027832,-0.141113,0.995605,-0.052057873136220095,-0.14613925324187188,2.574644826004574,0.27702760696411133,0.004508668556809425,-0.07732709497213364,0.9577347040176392
3a4949b1-4342-440b-ae79-14d47949d470,e9b61042-4af0-4619-81e8-e1bc9229b938,1689708356646191795,-0.732422,-1.037598,-0.062943,0.028809,-0.131836,0.996582,-0.0519695708625797,-0.14608349797213255,2.5745506539206398,0.2770773768424988,0.004470570012927055,-0.07728840410709381,0.9577236175537109
3a4949b1-4342-440b-ae79-14d47949d470,e9b61042-4af0-4619-81e8-e1bc9229b938,1689708356649320795,-0.793457,-1.220703,0.059128,0.019531,-0.126465,0.985352,-0.05194028698680213,-0.14607444882739343,2.574465569789008,0.2771194577217102,0.004454528912901878,-0.0772802084684372,0.9577121734619141
3a4949b1-4342-440b-ae79-14d47949d470,e9b61042-4af0-4619-81e8-e1bc9229b938,1689708356652449795,-0.852585,-0.917435,-0.185013,0.030762,-0.131836,0.996094,-0.05185999486016324,-0.14601918922730364,2.574236089365187,0.27723369002342224,0.004414978437125683,-0.07724315673112869,0.9576823115348816
3a4949b1-4342-440b-ae79-14d47949d470,e9b61042-4af0-4619-81e8-e1bc9229b938,1689708356655578795,-0.91362,-1.283646,0.242233,0.032715,-0.130859,0.984863,-0.0518842612735818,-0.1460365987105758,2.573994258491192,0.2773481607437134,0.004414808936417103,-0.07725538313388824,0.9576481580734253
3a4949b1-4342-440b-ae79-14d47949d470,e9b61042-4af0-4619-81e8-e1bc9229b938,1689708356658707795,-0.547409,-1.405716,0.120163,0.02002,-0.137207,0.98584,-0.05187010908209314,-0.1460494165522624,2.5737478653558528,0.27746638655662537,0.004396717995405197,-0.0772600919008255,0.9576136469841003
3a4949b1-4342-440b-ae79-14d47949d470,e9b61042-4af0-4619-81e8-e1bc9229b938,1689708356661836795,-0.793457,-1.098633,-0.123978,0.026855,-0.124023,0.992676,-0.05177579302053001,-0.1459670441715159,2.57349152892702,0.2775946259498596,0.004353240132331848,-0.07720816880464554,0.9575808644294739
3a4949b1-4342-440b-ae79-14d47949d470,e9b61042-4af0-4619-81e8-e1bc9229b938,1689708356664965795,-0.547409,-0.97847,0.059128,0.018555,-0.142578,0.98291,-0.051652094560518676,-0.14596000522831942,2.573553377487236,0.2775699496269226,0.0042973896488547325,-0.07718750089406967,0.9575899243354797
3a4949b1-4342-440b-ae79-14d47949d470,e9b61042-4af0-4619-81e8-e1bc9229b938,1689708356668094795,-0.488281,-1.342773,0.242233,0.016113,-0.132812,0.986328,-0.05161781788361771,-0.14595234907056964,2.5736957320301257,0.27750328183174133,0.00428755022585392,-0.07717877626419067,0.957610011100769
3a4949b1-4342-440b-ae79-14d47949d470,e9b61042-4af0-4619-81e8-e1bc9229b938,1689708356671223795,-0.364304,-0.97847,-0.123978,0.033203,-0.132324,0.979492,-0.05155129210540567,-0.14590853340444895,2.5738232278891817,0.27744579315185547,0.004266772419214249,-0.07714831829071045,0.9576292037963867
3a4949b1-4342-440b-ae79-14d47949d470,e9b61042-4af0-4619-81e8-e1bc9229b938,1689708356673848795,-0.730515,-1.283646,-0.123978,0.026367,-0.141113,0.996582,-0.05155412614286128,-0.14594323183267574,2.573841406112773,0.27743619680404663,0.004263955168426037,-0.07716526836156845,0.9576306343078613
3a4949b1-4342-440b-ae79-14d47949d470,e9b61042-4af0-4619-81e8-e1bc9229b938,1689708356676473795,-0.488281,-1.281738,-0.185013,0.032715,-0.147949,0.992187,-0.05148353760384303,-0.1459508811313695,2.5738476027535797,0.2774357795715332,0.004229321144521236,-0.07715912163257599,0.9576314091682434
3a4949b1-4342-440b-ae79-14d47949d470,e9b61042-4af0-4619-81e8-e1bc9229b938,1689708356679098795,-0.793457,-1.281738,-0.246048,0.019043,-0.130859,0.998047,-0.05145974069687205,-0.145950563363009,2.5738356609670223,0.27744242548942566,0.004217509180307388,-0.0771556943655014,0.9576297998428345
3a4949b1-4342-440b-ae79-14d47949d470,e9b61042-4af0-4619-81e8-e1bc9229b938,1689708356681723795,-0.547409,-1.466751,-0.185013,0.013672,-0.140625,0.989258,-0.05143024455773603,-0.14597362426439955,2.573676806274168,0.2775191068649292,0.004194015637040138,-0.077162966132164,0.957607090473175
3a4949b1-4342-440b-ae79-14d47949d470,e9b61042-4af0-4619-81e8-e1bc9229b938,1689708356684348795,-0.669479,-1.405716,-0.429153,0.017578,-0.124023,0.974609,-0.05141683357113402,-0.1459506698405853,2.57346628821613,0.27762094140052795,0.004182697273790836,-0.07715056836605072,0.9575785994529724
3a4949b1-4342-440b-ae79-14d47949d470,e9b61042-4af0-4619-81e8-e1bc9229b938,1689708356686973795,-0.427246,-1.342773,-0.429153,0.026855,-0.143066,0.995605,-0.05143002608867533,-0.14596886574265847,2.5732475511919257,0.2777247428894043,0.004178020171821117,-0.07716155797243118,0.957547664642334
3a4949b1-4342-440b-ae79-14d47949d470,e9b61042-4af0-4619-81e8-e1bc9229b938,1689708356689598795,-0.244141,-1.525879,-0.368118,0.022949,-0.130859,0.986328,-0.05144312488082794,-0.14593294801126713,2.573153251340649,0.27777019143104553,0.004185708239674568,-0.07714639604091644,0.9575356841087341
3a4949b1-4342-440b-ae79-14d47949d470,e9b61042-4af0-4619-81e8-e1bc9229b938,1689708356692223795,-0.547409,-1.466751,-0.612259,0.025879,-0.145996,0.992676,-0.051464389229039884,-0.1459723126139995,2.5730618017530027,0.27781227231025696,0.0041868193075060844,-0.07716836780309677,0.9575216770172119
3a4949b1-4342-440b-ae79-14d47949d470,e9b61042-4af0-4619-81e8-e1bc9229b938,1689708356694848795,-0.181198,-1.588821,-0.490189,0.020996,-0.125977,0.989258,-0.05147523843686199,-0.14591149303190243,2.572989163151517,0.2778480052947998,0.004197767004370689,-0.0771409422159195,0.9575134515762329
3a4949b1-4342-440b-ae79-14d47949d470,e9b61042-4af0-4619-81e8-e1bc9229b938,1689708356697473795,-0.242233,-1.466751,-0.8564,0.020508,-0.12793,0.981445,-0.05148056267018353,-0.14586571939498327,2.5727202214054197,0.2779775857925415,0.004196387715637684,-0.0771203562617302,0.9574775099754333
3a4949b1-4342-440b-ae79-14d47949d470,e9b61042-4af0-4619-81e8-e1bc9229b938,1689708356700098795,-0.181198,-1.646042,-0.612259,0.026855,-0.130371,0.977539,-0.051522011313815376,-0.1458275041662487,2.572434608173703,0.27811357378959656,0.0042106034234166145,-0.07710844278335571,0.9574389457702637
3a4949b1-4342-440b-ae79-14d47949d470,e9b61042-4af0-4619-81e8-e1bc9229b938,1689708356702723795,-0.242233,-1.771927,-0.795364,0.012207,-0.130371,0.991211,-0.051515909719422916,-0.14578626474597142,2.572138725154753,0.2782563865184784,0.004202083684504032,-0.07708849757909775,0.9573990702629089
3a4949b1-4342-440b-ae79-14d47949d470,e9b61042-4af0-4619-81e8-e1bc9229b938,1689708356705348795,-0.305176,-1.525879,-0.734329,0.010742,-0.137695,0.986328,-0.051486155916289744,-0.14578011133789978,2.571848807894718,0.27839645743370056,0.004177531227469444,-0.07708202302455902,0.9573589563369751
3a4949b1-4342-440b-ae79-14d47949d470,e9b61042-4af0-4619-81e8-e1bc9229b938,1689708356707973795,-0.547409,-1.710892,-0.551224,0.035156,-0.130371,0.984863,-0.05156197333184428,-0.14576584926337524,2.571781980603257,0.27842584252357483,0.0042132604867219925,-0.07708589732646942,0.957349956035614
3a4949b1-4342-440b-ae79-14d47949d470,e9b61042-4af0-4619-81e8-e1bc9229b938,1689708356710598795,-0.364304,-1.405716,-0.612259,0.024414,-0.12793,0.995605,-0.051571859732421864,-0.14572286983034324,2.5717626682831436,0.27843567728996277,0.004223308525979519,-0.07706676423549652,0.9573485851287842
3a4949b1-4342-440b-ae79-14d47949d470,e9b61042-4af0-4619-81e8-e1bc9229b938,1689708356713223795,-0.488281,-1.403809,-0.734329,0.014648,-0.14209,0.993164,-0.05154635049984214,-0.14574335287987975,2.5717480678291955,0.27844318747520447,0.00420764647424221,-0.07707303762435913,0.9573459625244141
3a4949b1-4342-440b-ae79-14d47949d470,e9b61042-4af0-4619-81e8-e1bc9229b938,1689708356715848795,-0.488281,-1.647949,-0.673294,0.014648,-0.126953,0.98584,-0.051540100643610094,-0.1457113930304974,2.571471250941041,0.27857664227485657,0.004198501817882061,-0.07705746591091156,0.9573084712028503
3a4949b1-4342-440b-ae79-14d47949d470,e9b61042-4af0-4619-81e8-e1bc9229b938,1689708356718756795,-0.242233,-1.588821,-0.368118,0.021973,-0.12207,0.99707,-0.05155150577870136,-0.1456377009426793,2.5711634130392045,0.27872520685195923,0.004202504642307758,-0.07702446728944778,0.9572678804397583
3a4949b1-4342-440b-ae79-14d47949d470,e9b61042-4af0-4619-81e8-e1bc9229b938,1689708356721664795,-0.242233,-1.466751,-0.551224,0.037598,-0.13623,0.994141,-0.05161598149790727,-0.14561772061451358,2.570824668371547,0.2788853049278259,0.0042231399565935135,-0.07702461630105972,0.9572211503982544
3a4949b1-4342-440b-ae79-14d47949d470,e9b61042-4af0-4619-81e8-e1bc9229b938,1689708356724572795,-0.364304,-1.466751,-0.490189,0.027832,-0.135742,0.993652,-0.05164238238880731,-0.14560595988904917,2.570974357461226,0.2788129150867462,0.004243198782205582,-0.07702235877513885,0.9572423100471497
3a4949b1-4342-440b-ae79-14d47949d470,e9b61042-4af0-4619-81e8-e1bc9229b938,1689708356727480795,0.061035,-1.220703,-0.490189,0.014648,-0.123047,0.975098,-0.05150577631229289,-0.1455316177467928,2.5712639383968043,0.2786812484264374,0.004199458286166191,-0.07696716487407684,0.9572852849960327
3a4949b1-4342-440b-ae79-14d47949d470,e9b61042-4af0-4619-81e8-e1bc9229b938,1689708356730388795,0.123978,-1.405716,-0.368118,0.028809,-0.129395,0.993164,-0.05153017199654028,-0.14546035185876846,2.57153606711078,0.2785516679286957,0.004231657832860947,-0.07693591713905334,0.9573253393173218
3a4949b1-4342-440b-ae79-14d47949d470,e9b61042-4af0-4619-81e8-e1bc9229b938,1689708356733296795,0.246048,-1.405716,-0.551224,0.01416,-0.127441,0.992187,-0.05150065055551784,-0.1453731013788788,2.571478589160581,0.27858227491378784,0.004227629862725735,-0.07689020782709122,0.9573201537132263
3a4949b1-4342-440b-ae79-14d47949d470,e9b61042-4af0-4619-81e8-e1bc9229b938,1689708356736204795,0.307083,-1.22261,-0.429153,0.028809,-0.120605,0.984375,-0.051416852653700315,-0.14528497274433075,2.571389161551333,0.2786302864551544,0.004196516238152981,-0.07683658599853516,0.9573106169700623
3a4949b1-4342-440b-ae79-14d47949d470,e9b61042-4af0-4619-81e8-e1bc9229b938,1689708356739112795,0.429153,-1.588821,-0.8564,0.020508,-0.126465,0.998047,-0.05142796100934837,-0.14517631227592637,2.5712292056067803,0.27870887517929077,0.004211020655930042,-0.07678651809692383,0.9572916626930237
3a4949b1-4342-440b-ae79-14d47949d470,e9b61042-4af0-4619-81e8-e1bc9229b938,1689708356742020795,0.366211,-1.586914,-0.673294,0.035645,-0.133789,0.999512,-0.05149454023875423,-0.1450996428533645,2.5711304973625286,0.2787552773952484,0.004249929450452328,-0.07675934582948685,0.9572802186012268
3a4949b1-4342-440b-ae79-14d47949d470,e9b61042-4af0-4619-81e8-e1bc9229b938,1689708356744928795,0.612259,-1.646042,-0.673294,0.025391,-0.133789,0.986328,-0.05152876192813093,-0.14501233929865237,2.5710501184602834,0.27879440784454346,0.004275547340512276,-0.07672254741191864,0.9572716355323792
3a4949b1-4342-440b-ae79-14d47949d470,e9b61042-4af0-4619-81e8-e1bc9229b938,1689708356747836795,0.429153,-1.710892,-0.490189,0.033691,-0.135254,0.981934,-0.0515981449444528,-0.14494750982957436,2.5709812411609922,0.27882617712020874,0.004315266385674477,-0.07670137286186218,0.9572638869285583
3a4949b1-4342-440b-ae79-14d47949d470,e9b61042-4af0-4619-81e8-e1bc9229b938,1689708356750744795,0.549316,-1.647949,-0.8564,0.018066,-0.130371,0.990723,-0.05160520502956365,-0.14484962619265235,2.57089506597947,0.2788693606853485,0.004329162649810314,-0.07665574550628662,0.9572548866271973
3a4949b1-4342-440b-ae79-14d47949d470,e9b61042-4af0-4619-81e8-e1bc9229b938,1689708356753652795,0.612259,-1.646042,-0.673294,0.02832,-0.143555,0.976562,-0.05165212475398793,-0.14480509433999073,2.5706948365137583,0.27896440029144287,0.004350235685706139,-0.07664143294095993,0.9572282433509827
3a4949b1-4342-440b-ae79-14d47949d470,e9b61042-4af0-4619-81e8-e1bc9229b938,1689708356756560795,0.612259,-1.466751,-0.8564,0.023926,-0.140137,0.994629,-0.05166674287270406,-0.1447373811997263,2.570460526373118,0.2790775001049042,0.004357827827334404,-0.07661160826683044,0.9571976661682129
3a4949b1-4342-440b-ae79-14d47949d470,e9b61042-4af0-4619-81e8-e1bc9229b938,1689708356759468795,0.549316,-1.647949,-0.97847,0.03125,-0.14209,0.994629,-0.051724420893089984,-0.14468124498192,2.5702097154426857,0.2791965901851654,0.004383762367069721,-0.07659336924552917,0.9571642875671387
3a4949b1-4342-440b-ae79-14d47949d470,e9b61042-4af0-4619-81e8-e1bc9229b938,1689708356762376795,0.429153,-1.405716,-0.734329,0.035156,-0.137695,0.975098,-0.05177967991217269,-0.14462948197402362,2.570102951661687,0.2792467474937439,0.004413433372974396,-0.07657657563686371,0.9571508169174194
3a4949b1-4342-440b-ae79-14d47949d470,e9b61042-4af0-4619-81e8-e1bc9229b938,1689708356765284795,0.429153,-1.10054,-1.10054,0.020996,-0.146484,0.990234,-0.05175859626898854,-0.14460158269824766,2.570002925527154,0.27929604053497314,0.0044034672901034355,-0.07656051218509674,0.9571378231048584
3a4949b1-4342-440b-ae79-14d47949d470,e9b61042-4af0-4619-81e8-e1bc9229b938,1689708356768192795,0.183105,-1.037598,-0.97847,0.037109,-0.119629,0.988769,-0.051793603259503995,-0.1444924474766673,2.5699085025943442,0.2793423533439636,0.004432043060660362,-0.07651343941688538,0.9571279287338257
3a4949b1-4342-440b-ae79-14d47949d470,e9b61042-4af0-4619-81e8-e1bc9229b938,1689708356771100795,0.244141,-1.220703,-1.039505,0.008789,-0.127441,0.979492,-0.05173661125209007,-0.14441399911331204,2.570304038190314,0.27915701270103455,0.004430986009538174,-0.0764671042561531,0.957185685634613
3a4949b1-4342-440b-ae79-14d47949d470,e9b61042-4af0-4619-81e8-e1bc9229b938,1689708356774008795,0.0,-0.976562,-1.10054,0.028809,-0.130371,0.987793,-0.05173702406338913,-0.1443598932057116,2.570776493157956,0.2789320945739746,0.004456889815628529,-0.0764402449131012,0.9572532773017883
3a4949b1-4342-440b-ae79-14d47949d470,e9b61042-4af0-4619-81e8-e1bc9229b938,1689708356776916795,0.0,-0.732422,-1.039505,0.027832,-0.120605,0.979492,-0.0516495834842748,-0.1442782362908062,2.57134830796334,0.2786635756492615,0.0044484129175543785,-0.07638774067163467,0.9573357105255127
3a4949b1-4342-440b-ae79-14d47949d470,e9b61042-4af0-4619-81e8-e1bc9229b938,1689708356779824795,-0.12207,-0.610352,-1.039505,0.027344,-0.125,0.981445,-0.051560243531311,-0.14421227256875635,2.5713348111561047,0.2786749303340912,0.004414441995322704,-0.07634378224611282,0.9573360681533813
3a4949b1-4342-440b-ae79-14d47949d470,e9b61042-4af0-4619-81e8-e1bc9229b938,1689708356783858795,-0.244141,-1.037598,-1.527786,0.032227,-0.124512,0.98291,-0.051584748969764935,-0.14415627853813323,2.5710848076702146,0.27879491448402405,0.0044245366007089615,-0.07632097601890564,0.9573029279708862
3a4949b1-4342-440b-ae79-14d47949d470,e9b61042-4af0-4619-81e8-e1bc9229b938,1689708356787892795,-0.179291,-0.854492,-1.283646,0.02832,-0.136719,0.989258,-0.05157649121013415,-0.14413918677708668,2.57083428938632,0.27891552448272705,0.004413437098264694,-0.07631220668554306,0.9572685360908508
3a4949b1-4342-440b-ae79-14d47949d470,e9b61042-4af0-4619-81e8-e1bc9229b938,1689708356791926795,-0.730515,-0.669479,-1.22261,0.018066,-0.137695,0.993652,-0.05151402239732123,-0.144165418770893,2.570571967798068,0.2790428698062897,0.004369824193418026,-0.07631660997867584,0.9572312831878662
3a4949b1-4342-440b-ae79-14d47949d470,e9b61042-4af0-4619-81e8-e1bc9229b938,1689708356795960795,-0.610352,-0.732422,-1.405716,0.022461,-0.128906,1.004395,-0.05147300209610925,-0.14414276508583174,2.5702917350460983,0.27917906641960144,0.004342700354754925,-0.07630066573619843,0.9571929574012756
3a4949b1-4342-440b-ae79-14d47949d470,e9b61042-4af0-4619-81e8-e1bc9229b938,1689708356799994795,-0.547409,-0.852585,-1.466751,0.034668,-0.123047,0.997559,-0.05148998397189671,-0.14409672628483708,2.5700016275783093,0.27931830286979675,0.0043462663888931274,-0.07628165930509567,0.9571537971496582
3a4949b1-4342-440b-ae79-14d47949d470,e9b61042-4af0-4619-81e8-e1bc9229b938,1689708356804028795,-0.669479,-0.669479,-1.527786,0.023438,-0.150391,0.998535,-0.05145070161324756,-0.14416208071468217,2.5697145370601304,0.2794557213783264,0.004307271912693977,-0.07630803436040878,0.9571117758750916
3a4949b1-4342-440b-ae79-14d47949d470,e9b61042-4af0-4619-81e8-e1bc9229b938,1689708356808062795,-0.610352,-1.098633,-1.344681,0.024414,-0.132812,0.986816,-0.0514478524017141,-0.14416374162721263,2.569378826861582,0.27961644530296326,0.004292864352464676,-0.07630915194749832,0.9570648074150085
3a4949b1-4342-440b-ae79-14d47949d470,e9b61042-4af0-4619-81e8-e1bc9229b938,1689708356812096795,-0.610352,-1.037598,-1.466751,0.035645,-0.138184,0.98584,-0.05148479676365959,-0.1441853238454079,2.569017361527195,0.27978751063346863,0.004293697886168957,-0.07632540911436081,0.9570135474205017
3a4949b1-4342-440b-ae79-14d47949d470,e9b61042-4af0-4619-81e8-e1bc9229b938,1689708356816130795,-0.976562,-0.915527,-1.527786,0.018555,-0.143555,0.980469,-0.051449110856072545,-0.14425759407727662,2.568659072062108,0.27995869517326355,0.004252700135111809,-0.07635572552680969,0.9569612145423889
3a4949b1-4342-440b-ae79-14d47949d470,e9b61042-4af0-4619-81e8-e1bc9229b938,1689708356820164795,-1.155853,-0.854492,-1.405716,0.016602,-0.130371,0.995605,-0.05139721536431606,-0.1442864440965322,2.568665030607854,0.2799571752548218,0.004224007949233055,-0.0763622373342514,0.9569612741470337
3a4949b1-4342-440b-ae79-14d47949d470,e9b61042-4af0-4619-81e8-e1bc9229b938,1689708356824198795,-0.91362,-0.795364,-1.771927,0.025879,-0.140625,0.984863,-0.051382390232865865,-0.14433927316788026,2.5687093286961793,0.279935359954834,0.004211116582155228,-0.07638531923294067,0.9569658637046814
3a4949b1-4342-440b-ae79-14d47949d470,e9b61042-4af0-4619-81e8-e1bc9229b938,1689708356828232795,-0.852585,-0.917435,-1.771927,0.025391,-0.136719,0.97168,-0.051377516162782855,-0.1443798807229124,2.5687676682054534,0.2799067199230194,0.004205256700515747,-0.07640392333269119,0.9569727778434753
3a4949b1-4342-440b-ae79-14d47949d470,e9b61042-4af0-4619-81e8-e1bc9229b938,1689708356832266795,-1.096725,-0.97847,-1.832962,0.024902,-0.132812,0.983398,-0.05137389277103554,-0.1444175315287952,2.568818639099973,0.27988162636756897,0.004200132563710213,-0.07642130553722382,0.9569787383079529
3a4949b1-4342-440b-ae79-14d47949d470,e9b61042-4af0-4619-81e8-e1bc9229b938,1689708356836300795,-1.03569,-0.612259,-1.466751,0.026855,-0.146484,0.99707,-0.05134334944706947,-0.14449559133685577,2.568896056920606,0.2798439860343933,0.004177420400083065,-0.07645417749881744,0.9569872617721558
3a4949b1-4342-440b-ae79-14d47949d470,e9b61042-4af0-4619-81e8-e1bc9229b938,1689708356840334795,-0.976562,-0.732422,-1.588821,0.029785,-0.124512,0.97998,-0.05133804973520586,-0.14449515182794684,2.5689615938602754,0.27981284260749817,0.004177450202405453,-0.07645308971405029,0.9569964408874512
3a4949b1-4342-440b-ae79-14d47949d470,e9b61042-4af0-4619-81e8-e1bc9229b938,1689708356844368795,-1.096725,-0.795364,-1.771927,0.036133,-0.147461,0.989258,-0.05136183665614216,-0.14458399988227866,2.5688106646507927,0.27988216280937195,0.004170466214418411,-0.07649920135736465,0.9569724798202515
3a4949b1-4342-440b-ae79-14d47949d470,e9b61042-4af0-4619-81e8-e1bc9229b938,1689708356848402795,-1.220703,-0.854492,-1.527786,0.018066,-0.123047,0.997559,-0.05131693167988619,-0.14458712816307,2.5686490352084426,0.27996113896369934,0.004142358899116516,-0.0764947459101677,0.9569498896598816
3a4949b1-4342-440b-ae79-14d47949d470,e9b61042-4af0-4619-81e8-e1bc9229b938,1689708356852436795,-1.220703,-0.854492,-1.588821,0.024414,-0.148438,0.992187,-0.05129816885489009,-0.1446878573347094,2.5684722062360574,0.28004419803619385,0.004112335853278637,-0.07654062658548355,0.9569220542907715
3a4949b1-4342-440b-ae79-14d47949d470,e9b61042-4af0-4619-81e8-e1bc9229b938,1689708356856470795,-1.462936,-0.490189,-1.710892,0.02832,-0.130859,0.984863,-0.05126968566409539,-0.14474420059777882,2.5684324798215448,0.28006303310394287,0.004089195281267166,-0.07656364887952805,0.9569147825241089
3a4949b1-4342-440b-ae79-14d47949d470,e9b61042-4af0-4619-81e8-e1bc9229b938,1689708356860504795,-1.523972,-0.612259,-1.527786,0.025391,-0.132324,0.993652,-0.051235616378619245,-0.14480645007158602,2.5684383082290276,0.28006014227867126,0.004064294509589672,-0.07658861577510834,0.9569137692451477
3a4949b1-4342-440b-ae79-14d47949d470,e9b61042-4af0-4619-81e8-e1bc9229b938,1689708356864538795,-1.403809,-0.854492,-1.710892,0.026367,-0.135742,0.988769,-0.051226752969479046,-0.1448739943559977,2.5684359198493043,0.2800601124763489,0.004050380550324917,-0.07661966234445572,0.9569113254547119
3a4949b1-4342-440b-ae79-14d47949d470,e9b61042-4af0-4619-81e8-e1bc9229b938,1689708356868572795,-1.523972,-0.669479,-1.466751,0.011719,-0.125977,0.998535,-0.051143614446371624,-0.14490991651003562,2.568461009583893,0.28005048632621765,0.004006469622254372,-0.07662513852119446,0.9569138884544373
3a4949b1-4342-440b-ae79-14d47949d470,e9b61042-4af0-4619-81e8-e1bc9229b938,1689708356872606795,-1.586914,-0.671387,-1.527786,0.012207,-0.131836,0.994141,-0.05106428863470853,-0.1449743062335314,2.56809054987796,0.2802293300628662,0.003945184871554375,-0.07664553821086884,0.9568601250648499
3a4949b1-4342-440b-ae79-14d47949d470,e9b61042-4af0-4619-81e8-e1bc9229b938,1689708356876640795,-1.401901,-0.490189,-1.710892,0.010742,-0.124512,0.99707,-0.050967137702372683,-0.144995078942955,2.5676319556266325,0.2804519832134247,0.0038781845942139626,-0.07664274424314499,0.9567953944206238
3a4949b1-4342-440b-ae79-14d47949d470,e9b61042-4af0-4619-81e8-e1bc9229b938,1689708356876808795,-1.644135,-0.549316,-1.649857,0.023926,-0.128906,0.993164,-0.05092557380794624,-0.1450525965878241,2.5671574241946713,0.28067928552627563,0.003831947222352028,-0.07666531205177307,0.956727147102356
3a4949b1-4342-440b-ae79-14d47949d470,e9b61042-4af0-4619-81e8-e1bc9229b938,1689708356876976795,-1.644135,-0.549316,-1.344681,0.024902,-0.136719,0.996582,-0.05088388884752684,-0.14513841615046272,2.566878383754856,0.28081244230270386,0.0037891073152422905,-0.07670100033283234,0.9566853642463684
3a4949b1-4342-440b-ae79-14d47949d470,e9b61042-4af0-4619-81e8-e1bc9229b938,1689708356877144795,-1.220703,-0.549316,-1.527786,0.02832,-0.128906,0.977539,-0.050860908924180485,-0.14517209322698557,2.566620905440575,0.28093573451042175,0.003763447515666485,-0.07671435177326202,0.9566481709480286
3a4949b1-4342-440b-ae79-14d47949d470,e9b61042-4af0-4619-81e8-e1bc9229b938,1689708356877312795,-1.338959,-0.366211,-1.344681,0.01709,-0.135254,0.995117,-0.0507759127706188,-0.1452300031710044,2.566392276028233,0.2810470461845398,0.0037057874724268913,-0.07673050463199615,0.9566144347190857
3a4949b1-4342-440b-ae79-14d47949d470,e9b61042-4af0-4619-81e8-e1bc9229b938,1689708356877480795,-1.401901,-0.795364,-1.344681,0.027344,-0.141602,0.997559,-0.05076220448484596,-0.1453145055717255,2.5661830414152753,0.28114575147628784,0.0036791767925024033,-0.07676933705806732,0.9565824270248413
3a4949b1-4342-440b-ae79-14d47949d470,e9b61042-4af0-4619-81e8-e1bc9229b938,1689708356877648795,-1.403809,-0.732422,-1.405716,0.020508,-0.125,0.98584,-0.05072078841702331,-0.14534287809417246,2.56597897413357,0.28124430775642395,0.003647495061159134,-0.07677744328975677,0.9565529227256775
3a4949b1-4342-440b-ae79-14d47949d470,e9b61042-4af0-4619-81e8-e1bc9229b938,1689708356877816795,-1.401901,-0.490189,-1.405716,0.018066,-0.133301,0.986816,-0.05065164189884109,-0.14540166303185317,2.5657785787455087,0.2813414931297302,0.0035983556881546974,-0.07679616659879684,0.9565230011940002
3a4949b1-4342-440b-ae79-14d47949d470,e9b61042-4af0-4619-81e8-e1bc9229b938,1689708356877984795,-1.340866,-0.669479,-1.405716,0.016602,-0.135742,0.993652,-0.050589599798669956,-0.14546113120059936,2.5656818276574715,0.2813888192176819,0.003556494601070881,-0.07681602239608765,0.9565076231956482
3a4949b1-4342-440b-ae79-14d47949d470,e9b61042-4af0-4619-81e8-e1bc9229b938,1689708356878152795,-1.098633,-0.427246,-1.405716,0.006348,-0.131348,0.988769,-0.050470981895459656,-0.14548851042533115,2.5656124360038173,0.28142595291137695,0.00349319726228714,-0.07681253552436829,0.9564971923828125
3a4949b1-4342-440b-ae79-14d47949d470,e9b61042-4af0-4619-81e8-e1bc9229b938,1689708356878320795,-0.915527,-0.671387,-1.10054,0.016113,-0.124512,0.990723,-0.05040471586757967,-0.14547618632050147,2.565566047476134,0.28145095705986023,0.0034614810720086098,-0.07679740339517593,0.9564911723136902
3a4949b1-4342-440b-ae79-14d47949d470,e9b61042-4af0-4619-81e8-e1bc9229b938,1689708356878488795,-1.03569,-0.307083,-1.161575,0.023438,-0.138672,1.006836,-0.05033664289103952,-0.14551689039424756,2.5657479950168867,0.28136563301086426,0.003430119715631008,-0.07680695503950119,0.9565156698226929
3a4949b1-4342-440b-ae79-14d47949d470,e9b61042-4af0-4619-81e8-e1bc9229b938,1689708356878656795,-0.91362,-0.97847,-1.10054,0.020508,-0.138672,0.987793,-0.05031128290742136,-0.1455589877472428,2.5659823825254984,0.2812535762786865,0.0034209927543997765,-0.07682310044765472,0.9565473198890686
3a4949b1-4342-440b-ae79-14d47949d470,e9b61042-4af0-4619-81e8-e1bc9229b938,1689708356878824795,-0.852585,-0.669479,-1.22261,0.016602,-0.134277,0.983398,-0.05025016473747066,-0.14558199304283986,2.5662172588956764,0.28114306926727295,0.003397510387003422,-0.0768250972032547,0.9565797448158264
3a4949b1-4342-440b-ae79-14d47949d470,e9b61042-4af0-4619-81e8-e1bc9229b938,1689708356878992795,-0.976562,-0.549316,-1.22261,0.029297,-0.13623,0.996094,-0.05022623545315235,-0.14561405985059894,2.5664449824409057,0.28103435039520264,0.0033902516588568687,-0.07683666795492172,0.9566107988357544
3a4949b1-4342-440b-ae79-14d47949d470,e9b61042-4af0-4619-81e8-e1bc9229b938,1689708356879160795,-1.03569,-0.429153,-0.97847,0.016113,-0.141113,0.991699,-0.05014103380201672,-0.14567252672275113,2.5661621196285886,0.28117161989212036,0.0033303070813417435,-0.07685310393571854,0.9565693140029907
3a4949b1-4342-440b-ae79-14d47949d470,e9b61042-4af0-4619-81e8-e1bc9229b938,1689708356879328795,-0.793457,-0.549316,-0.97847,0.02002,-0.138672,0.996094,-0.050026550086717476,-0.14564465300258114,2.565849839736848,0.2813259959220886,0.0032675229012966156,-0.07682420313358307,0.9565264582633972
3a4949b1-4342-440b-ae79-14d47949d470,e9b61042-4af0-4619-81e8-e1bc9229b938,1689708356879496795,-0.732422,-0.366211,-1.161575,0.017578,-0.119629,0.987793,-0.04994562844089746,-0.14560107723889035,2.565428365992112,0.2815316319465637,0.0032188501209020615,-0.07679267972707748,0.9564687013626099
3a4949b1-4342-440b-ae79-14d47949d470,e9b61042-4af0-4619-81e8-e1bc9229b938,1689708356879664795,-0.850677,-0.366211,-1.22261,0.02002,-0.123047,0.997559,-0.04987263637152613,-0.14557507873666342,2.565282814317151,0.2816046178340912,0.0031820619478821754,-0.07677021622657776,0.9564491510391235
3a4949b1-4342-440b-ae79-14d47949d470,e9b61042-4af0-4619-81e8-e1bc9229b938,1689708356879832795,-0.488281,-0.488281,-1.039505,0.018555,-0.124512,1.001953,-0.049753033380829446,-0.1454903593009262,2.565291560129286,0.28160691261291504,0.0031372737139463425,-0.07671289145946503,0.9564532041549683
3a4949b1-4342-440b-ae79-14d47949d470,e9b61042-4af0-4619-81e8-e1bc9229b938,1689708356880000795,-0.732422,-0.183105,-1.161575,0.036133,-0.138184,0.978516,-0.04970497643210889,-0.1454704908378694,2.565301144503559,0.2816046178340912,0.0031174886971712112,-0.07669661939144135,0.9564552307128906
3a4949b1-4342-440b-ae79-14d47949d470,e9b61042-4af0-4619-81e8-e1bc9229b938,1689708356880168795,-0.667572,-0.366211,-0.97847,0.029297,-0.132812,0.98584,-0.04962949107899273,-0.14542691423649876,2.5651673094456844,0.28167247772216797,0.0030824728310108185,-0.07666537910699844,0.956437885761261
3a4949b1-4342-440b-ae79-14d47949d470,e9b61042-4af0-4619-81e8-e1bc9229b938,1689708356880336795,-0.667572,-0.061035,-1.039505,0.026367,-0.14502,0.979004,-0.04954385372599832,-0.14543405900308362,2.565006126378239,0.28175267577171326,0.003034326247870922,-0.07665697485208511,0.9564151167869568
3a4949b1-4342-440b-ae79-14d47949d470,e9b61042-4af0-4619-81e8-e1bc9229b938,1689708356880504795,-0.793457,0.305176,-1.039505,0.018066,-0.12207,0.98291,-0.04942667823703312,-0.1453522234124381,2.564844755653464,0.2818361520767212,0.0029837777838110924,-0.07660161703824997,0.9563950896263123
3a4949b1-4342-440b-ae79-14d47949d470,e9b61042-4af0-4619-81e8-e1bc9229b938,1689708356880672795,-1.155853,0.12207,-0.917435,0.010254,-0.135254,0.989746,-0.04928030206630898,-0.14540058335103084,2.564730573804566,0.2818952798843384,0.002902515232563019,-0.07660425454378128,0.9563777446746826
3a4949b1-4342-440b-ae79-14d47949d470,e9b61042-4af0-4619-81e8-e1bc9229b938,1689708356885361795,-0.793457,0.305176,-0.97847,0.025879,-0.120605,0.988769,-0.049192868411290405,-0.14530994977024073,2.564705871888743,0.2819124460220337,0.002872687764465809,-0.07654867321252823,0.9563772082328796
3a4949b1-4342-440b-ae79-14d47949d470,e9b61042-4af0-4619-81e8-e1bc9229b938,1689708356890050795,-0.976562,0.305176,-1.039505,0.030273,-0.132324,0.99707,-0.0491099112607535,-0.1453287191914317,2.564601224475609,0.2819652557373047,0.0028263311833143234,-0.0765460953116417,0.9563619494438171
3a4949b1-4342-440b-ae79-14d47949d470,e9b61042-4af0-4619-81e8-e1bc9229b938,1689708356894739795,-0.669479,0.181198,-0.795364,0.026855,-0.135254,0.984375,-0.0490276682684241,-0.14529558941293783,2.564533896047619,0.2820013165473938,0.0027891620993614197,-0.07651876658201218,0.9563536643981934
3a4949b1-4342-440b-ae79-14d47949d470,e9b61042-4af0-4619-81e8-e1bc9229b938,1689708356899428795,-1.220703,0.12207,-1.283646,0.027344,-0.134766,0.97998,-0.048954003150414586,-0.14535050798726012,2.5643550378476108,0.2820884585380554,0.002739250659942627,-0.07653485983610153,0.9563267827033997
3a4949b1-4342-440b-ae79-14d47949d470,e9b61042-4af0-4619-81e8-e1bc9229b938,1689708356904117795,-1.464844,0.12207,-1.039505,0.029297,-0.13916,0.978027,-0.04888586608980991,-0.14544201784588376,2.5641918351658552,0.28216707706451416,0.0026873648166656494,-0.07656917721033096,0.9563010334968567
3a4949b1-4342-440b-ae79-14d47949d470,e9b61042-4af0-4619-81e8-e1bc9229b938,1689708356908806795,-1.03569,0.242233,-0.8564,0.029297,-0.135742,0.987793,-0.04881316123046161,-0.14540836854482886,2.5641140703517893,0.28220778703689575,0.0026544276624917984,-0.07654295116662979,0.9562911987304688
3a4949b1-4342-440b-ae79-14d47949d470,e9b61042-4af0-4619-81e8-e1bc9229b938,1689708356913495795,-1.218796,0.181198,-1.10054,0.010742,-0.12793,0.983887,-0.0486695151087897,-0.14543625195659823,2.5641088298389985,0.2822151780128479,0.0025815609842538834,-0.07653600722551346,0.9562897682189941
3a4949b1-4342-440b-ae79-14d47949d470,e9b61042-4af0-4619-81e8-e1bc9229b938,1689708356918184795,-1.155853,0.12207,-1.161575,0.023438,-0.150391,0.98584,-0.04857977293846925,-0.1455419634539901,2.5641221873664928,0.2822099030017853,0.002524067647755146,-0.07657381892204285,0.9562884569168091
3a4949b1-4342-440b-ae79-14d47949d470,e9b61042-4af0-4619-81e8-e1bc9229b938,1689708356922873795,-1.03569,0.364304,-1.22261,0.021973,-0.128906,0.994629,-0.04846538600570675,-0.1455525044617833,2.564138173367245,0.2822064161300659,0.0024684760719537735,-0.07656269520521164,0.9562904834747314
3a4949b1-4342-440b-ae79-14d47949d470,e9b61042-4af0-4619-81e8-e1bc9229b938,1689708356927562795,-1.157761,0.059128,-1.22261,0.018555,-0.144531,0.989746,-0.04836233989215538,-0.14563357055831025,2.5643009511821915,0.28213074803352356,0.002413865178823471,-0.07658667862415314,0.956311047077179
3a4949b1-4342-440b-ae79-14d47949d470,e9b61042-4af0-4619-81e8-e1bc9229b938,1689708356932251795,-1.03569,-0.001907,-0.917435,0.01709,-0.134277,0.982422,-0.04824596624336324,-0.14559696553294438,2.5645892939247377,0.2819981276988983,0.002374483272433281,-0.07655243575572968,0.9563530087471008
3a4949b1-4342-440b-ae79-14d47949d470,e9b61042-4af0-4619-81e8-e1bc9229b938,1689708356936940795,-0.91362,0.364304,-1.161575,0.016602,-0.130859,0.987305,-0.048112897059522534,-0.1456099005715903,2.5647899505784824,0.28190699219703674,0.002316683530807495,-0.07653962075710297,0.9563810229301453
3a4949b1-4342-440b-ae79-14d47949d470,e9b61042-4af0-4619-81e8-e1bc9229b938,1689708356941629795,-1.220703,-0.366211,-1.283646,0.021973,-0.137695,0.996094,-0.04805605504909166,-0.14566595965104356,2.5645916811066933,0.2820027470588684,0.002273919992148876,-0.07655861228704453,0.9563513994216919
3a4949b1-4342-440b-ae79-14d47949d470,e9b61042-4af0-4619-81e8-e1bc9229b938,1689708356946318795,-1.03569,-0.490189,-0.917435,0.027832,-0.14209,0.993164,-0.048027432927508475,-0.14572722842012945,2.5643426811355465,0.28212156891822815,0.002241957001388073,-0.07658412307500839,0.9563143849372864
3a4949b1-4342-440b-ae79-14d47949d470,e9b61042-4af0-4619-81e8-e1bc9229b938,1689708356951007795,-1.03569,0.059128,-1.10054,0.01709,-0.138184,0.98584,-0.04791974999049226,-0.14577734978628765,2.5640714533388365,0.28225427865982056,0.0021729301661252975,-0.07659316807985306,0.956274688243866
3a4949b1-4342-440b-ae79-14d47949d470,e9b61042-4af0-4619-81e8-e1bc9229b938,1689708356955696795,-0.793457,-0.12207,-1.405716,0.01416,-0.131836,0.986816,-0.04781822764472271,-0.1457834610018112,2.5637399208622607,0.28241655230522156,0.002110818400979042,-0.07658211141824722,0.9562277793884277
3a4949b1-4342-440b-ae79-14d47949d470,e9b61042-4af0-4619-81e8-e1bc9229b938,1689708356960385795,-1.03569,-0.307083,-1.22261,0.02002,-0.132324,0.989258,-0.04775090402828238,-0.14580903535977915,2.5634122175054883,0.28257524967193604,0.002062426880002022,-0.07658515870571136,0.9561807513237
3a4949b1-4342-440b-ae79-14d47949d470,e9b61042-4af0-4619-81e8-e1bc9229b938,1689708356965074795,-0.793457,-0.183105,-1.344681,0.018555,-0.133301,0.99707,-0.047668849919490136,-0.14581503502613058,2.5630779183196495,0.2827380895614624,0.002009536139667034,-0.07657676935195923,0.9561333656311035
3a4949b1-4342-440b-ae79-14d47949d470,e9b61042-4af0-4619-81e8-e1bc9229b938,1689708356969763795,-0.610352,-0.427246,-1.10054,0.019531,-0.137207,0.991211,-0.04756279758981347,-0.14578382815171306,2.5628971825703215,0.282829225063324,0.001956385560333729,-0.0765470489859581,0.9561089277267456
3a4949b1-4342-440b-ae79-14d47949d470,e9b61042-4af0-4619-81e8-e1bc9229b938,1689708356974452795,-0.91362,-0.429153,-1.22261,0.01709,-0.133301,0.993164,-0.04749369496562925,-0.14580177971143107,2.5626326388380978,0.28295794129371643,0.0019106585532426834,-0.07654610276222229,0.9560710191726685
3a4949b1-4342-440b-ae79-14d47949d470,e9b61042-4af0-4619-81e8-e1bc9229b938,1689708356979141795,-0.793457,-0.427246,-1.344681,0.023926,-0.126953,0.988769,-0.04745308367489947,-0.14578844911928956,2.5623593722847273,0.28309041261672974,0.0018826965242624283,-0.07653424888849258,0.9560328125953674
3a4949b1-4342-440b-ae79-14d47949d470,e9b61042-4af0-4619-81e8-e1bc9229b938,1689708356983830795,-0.730515,-0.490189,-1.283646,0.013672,-0.138184,0.979004,-0.04737908924846826,-0.14581855440348646,2.5620987721452733,0.2832171618938446,0.0018330402672290802,-0.07653839141130447,0.9559950232505798
3a4949b1-4342-440b-ae79-14d47949d470,e9b61042-4af0-4619-81e8-e1bc9229b938,1689708356988519795,-0.976562,-0.183105,-1.283646,0.013184,-0.132324,0.99707,-0.04727737329081158,-0.145835001944225,2.5619811034164957,0.2832769453525543,0.001777559518814087,-0.07653194665908813,0.9559779167175293
3a4949b1-4342-440b-ae79-14d47949d470,e9b61042-4af0-4619-81e8-e1bc9229b938,1689708356996237795,-0.852585,-0.734329,-1.344681,0.001953,-0.142578,0.980957,-0.04717805975942989,-0.14588962908897332,2.561894172049794,0.2833211123943329,0.0017189346253871918,-0.07654403895139694,0.9559639692306519
3a4949b1-4342-440b-ae79-14d47949d470,e9b61042-4af0-4619-81e8-e1bc9229b938,1689708357003955795,-0.976562,-0.610352,-1.466751,0.01123,-0.136719,0.97998,-0.0471069905989734,-0.14593112708236425,2.5617986565524093,0.2833685874938965,0.001675361767411232,-0.07655386626720428,0.9559491872787476
3a4949b1-4342-440b-ae79-14d47949d470,e9b61042-4af0-4619-81e8-e1bc9229b938,1689708357011673795,-1.281738,-0.427246,-1.161575,0.018066,-0.132324,0.973633,-0.04704641098447196,-0.14598344461209273,2.562222368618904,0.2831672430038452,0.0016551297158002853,-0.07656991481781006,0.9560075998306274
3a4949b1-4342-440b-ae79-14d47949d470,e9b61042-4af0-4619-81e8-e1bc9229b938,1689708357019391795,-0.976562,-0.793457,-1.344681,0.021484,-0.134277,1.00293,-0.04702336741713908,-0.14600298013821073,2.5627295127387515,0.2829252779483795,0.0016607334837317467,-0.07657556235790253,0.9560787677764893
3a4949b1-4342-440b-ae79-14d47949d470,e9b61042-4af0-4619-81e8-e1bc9229b938,1689708357027109795,-0.793457,-0.793457,-1.405716,0.005859,-0.146973,0.989258,-0.04694373747728606,-0.14606391576844124,2.5632570213122334,0.2826748192310333,0.0016341544687747955,-0.07659296691417694,0.95615154504776
3a4949b1-4342-440b-ae79-14d47949d470,e9b61042-4af0-4619-81e8-e1bc9229b938,1689708357034827795,-1.03569,-0.852585,-1.527786,0.021484,-0.142578,0.994141,-0.04692935384881315,-0.146123026514627,2.5629466243063814,0.28282248973846436,0.0016069309785962105,-0.07661941647529602,0.9561057686805725
3a4949b1-4342-440b-ae79-14d47949d470,e9b61042-4af0-4619-81e8-e1bc9229b938,1689708357042545795,-0.730515,-0.97847,-1.344681,0.028809,-0.133789,0.994141,-0.046950018705638946,-0.14612648989068242,2.5624853443148274,0.28304213285446167,0.001598641276359558,-0.07662436366081238,0.9560403823852539
3a4949b1-4342-440b-ae79-14d47949d470,e9b61042-4af0-4619-81e8-e1bc9229b938,1689708357050263795,-0.91362,-0.97847,-1.22261,0.003418,-0.135254,1.0,-0.046871242234847225,-0.14614711478341677,2.562017303155294,0.28326842188835144,0.0015401048585772514,-0.07662342488765717,0.9559735655784607
3a4949b1-4342-440b-ae79-14d47949d470,e9b61042-4af0-4619-81e8-e1bc9229b938,1689708357057981795,-0.425339,-0.795364,-1.283646,0.014648,-0.129883,0.995605,-0.04682311971249672,-0.14611257654176515,2.561926017342495,0.28331464529037476,0.0015185549855232239,-0.07660018652677536,0.9559617638587952
3a4949b1-4342-440b-ae79-14d47949d470,e9b61042-4af0-4619-81e8-e1bc9229b938,1689708357065699795,-0.427246,-0.732422,-1.22261,0.020508,-0.130371,0.995117,-0.04679237279291485,-0.1460803573897549,2.561913867389235,0.2833223342895508,0.0015080058947205544,-0.0765804573893547,0.9559610486030579
3a4949b1-4342-440b-ae79-14d47949d470,e9b61042-4af0-4619-81e8-e1bc9229b938,1689708357073417795,-0.305176,-1.037598,-0.8564,0.009766,-0.135742,0.983887,-0.04665364087194368,-0.14604690064598946,2.562017210209993,0.2832789719104767,0.0014504436403512955,-0.07654475420713425,0.9559768438339233
3a4949b1-4342-440b-ae79-14d47949d470,e9b61042-4af0-4619-81e8-e1bc9229b938,1689708357081135795,-0.12207,-0.854492,-0.795364,0.011719,-0.134766,0.991211,-0.04652155939825283,-0.1460058839588938,2.56196559045716,0.28330957889556885,0.0013912143185734749,-0.07650649547576904,0.9559709429740906
3a4949b1-4342-440b-ae79-14d47949d470,e9b61042-4af0-4619-81e8-e1bc9229b938,1689708357088853795,0.307083,-1.466751,-1.039505,0.009277,-0.147461,0.998535,-0.04650128345109628,-0.1459819170242551,2.5618072287784495,0.28338655829429626,0.0013789031654596329,-0.07649228721857071,0.9559493064880371
3a4949b1-4342-440b-ae79-14d47949d470,e9b61042-4af0-4619-81e8-e1bc9229b938,1689708357096571795,0.612259,-1.22261,-0.551224,0.0,-0.135742,1.003418,-0.04642076159512429,-0.14589042336203137,2.561687294583269,0.2834489345550537,0.001348942518234253,-0.07643727213144302,0.9559352397918701
3a4949b1-4342-440b-ae79-14d47949d470,e9b61042-4af0-4619-81e8-e1bc9229b938,1689708357104289795,0.734329,-1.466751,-0.246048,0.01416,-0.126953,1.007324,-0.04640897561035202,-0.14575566593855377,2.5615830523110192,0.28350210189819336,0.0013586478307843208,-0.07637132704257965,0.9559247493743896
3a4949b1-4342-440b-ae79-14d47949d470,e9b61042-4af0-4619-81e8-e1bc9229b938,1689708357112007795,0.795364,-1.22261,-0.185013,0.01123,-0.137695,0.987793,-0.046370347946722484,-0.14566813541378074,2.5615130095360685,0.28353893756866455,0.0013500601053237915,-0.07632410526275635,0.9559175968170166
3a4949b1-4342-440b-ae79-14d47949d470,e9b61042-4af0-4619-81e8-e1bc9229b938,1689708357119725795,0.734329,-0.917435,0.0,0.01416,-0.12793,0.993164,-0.04624834159791517,-0.14560178412285685,2.561458572537924,0.2835710346698761,0.0012991838157176971,-0.07627516239881516,0.9559120535850525
3a4949b1-4342-440b-ae79-14d47949d470,e9b61042-4af0-4619-81e8-e1bc9229b938,1689708357127443795,0.854492,-0.854492,0.425339,-0.003906,-0.12793,0.997559,-0.04605698781966622,-0.14553376352472117,2.5614154790874886,0.283600389957428,0.0012158332392573357,-0.07621558010578156,0.9559081792831421
3a4949b1-4342-440b-ae79-14d47949d470,e9b61042-4af0-4619-81e8-e1bc9229b938,1689708357135161795,0.671387,-1.159668,0.486374,0.02002,-0.130859,0.993652,-0.04604032459919418,-0.14542947420123592,2.561505276383611,0.2835603356361389,0.001226244494318962,-0.07616336643695831,0.9559242129325867
3a4949b1-4342-440b-ae79-14d47949d470,e9b61042-4af0-4619-81e8-e1bc9229b938,1689708357142879795,1.10054,-0.669479,0.608444,0.008789,-0.132812,0.986816,-0.04594354248197262,-0.14530520867208097,2.5616325656681824,0.2835058271884918,0.0012026503682136536,-0.07609023153781891,0.9559462666511536
3a4949b1-4342-440b-ae79-14d47949d470,e9b61042-4af0-4619-81e8-e1bc9229b938,1689708357150597795,1.10054,-0.490189,0.852585,0.005859,-0.140137,0.988769,-0.04581911367693377,-0.1452086523207839,2.561783343964244,0.28344056010246277,0.001162744127213955,-0.07602640241384506,0.9559707045555115
3a4949b1-4342-440b-ae79-14d47949d470,e9b61042-4af0-4619-81e8-e1bc9229b938,1689708357158315795,0.917435,-0.97847,1.218796,0.012207,-0.125977,0.987793,-0.04575249357006094,-0.14507489692041842,2.5615499788839715,0.2835574746131897,0.001141211949288845,-0.07595322281122208,0.955941915512085
3a4949b1-4342-440b-ae79-14d47949d470,e9b61042-4af0-4619-81e8-e1bc9229b938,1689708357166033795,0.429153,-0.307083,1.340866,0.013672,-0.124512,0.978516,-0.04564156505574646,-0.1449784392831785,2.561242975105607,0.2837104797363281,0.0010903673246502876,-0.07589160650968552,0.9559014439582825
3a4949b1-4342-440b-ae79-14d47949d470,e9b61042-4af0-4619-81e8-e1bc9229b938,1689708357173751795,0.183105,-0.793457,1.401901,0.021484,-0.135254,0.994141,-0.04559449380572987,-0.14493245803696903,2.5609216960230397,0.2838667929172516,0.0010622795671224594,-0.07586314529180527,0.9558573365211487
3a4949b1-4342-440b-ae79-14d47949d470,e9b61042-4af0-4619-81e8-e1bc9229b938,1689708357181469795,0.0,-0.671387,1.340866,0.018555,-0.131348,0.976074,-0.0455311296923089,-0.14489551249735683,2.5612995177166664,0.2836894094944,0.0010516215115785599,-0.07583631575107574,0.9559121131896973
3a4949b1-4342-440b-ae79-14d47949d470,e9b61042-4af0-4619-81e8-e1bc9229b938,1689708357189187795,-0.12207,-0.366211,1.462936,0.020996,-0.139648,0.983398,-0.04545174770502502,-0.14489534960951161,2.561823065097346,0.2834421694278717,0.0010335585102438927,-0.07582470774650574,0.9559864401817322
3a4949b1-4342-440b-ae79-14d47949d470,e9b61042-4af0-4619-81e8-e1bc9229b938,1689708357196905795,-0.488281,-0.244141,1.829147,0.013184,-0.125,0.982422,-0.04532990518618401,-0.1448699464523428,2.5624017182430583,0.2831707298755646,0.0010008839890360832,-0.07579502463340759,0.9560692310333252
3a4949b1-4342-440b-ae79-14d47949d470,e9b61042-4af0-4619-81e8-e1bc9229b938,1689708357331421795,-1.279831,-1.466751,0.242233,0.021484,-0.145508,0.992676,-0.04648113387648342,-0.1461081828384743,2.5599500726637165,0.284272164106369,0.0012800898402929306,-0.07655094563961029,0.9556817412376404
3a4949b1-4342-440b-ae79-14d47949d470,e9b61042-4af0-4619-81e8-e1bc9229b938,1689708357353093795,-0.852585,-1.340866,0.120163,0.02002,-0.137695,0.992676,-0.046481632076769724,-0.1461417359164546,2.5596833860507324,0.2843988537788391,0.0012652939185500145,-0.07656720280647278,0.9556427597999573
3a4949b1-4342-440b-ae79-14d47949d470,e9b61042-4af0-4619-81e8-e1bc9229b938,1689708357374765795,-1.157761,-1.588821,-0.062943,0.019043,-0.133301,0.998047,-0.04649805672207454,-0.14617815420144364,2.5593965695411898,0.2845344841480255,0.0012569203972816467,-0.07658710330724716,0.9556007981300354
3a4949b1-4342-440b-ae79-14d47949d470,e9b61042-4af0-4619-81e8-e1bc9229b938,1689708357396437795,-1.03569,-1.588821,-0.185013,0.029785,-0.131836,0.989746,-0.04655823974407978,-0.14620359859956125,2.5590954325838657,0.2846755087375641,0.001270480453968048,-0.07660800218582153,0.955557107925415
3a4949b1-4342-440b-ae79-14d47949d470,e9b61042-4af0-4619-81e8-e1bc9229b938,1689708357418109795,-1.340866,-1.466751,0.0,0.018555,-0.131348,0.995605,-0.046563169648412325,-0.14624780397453022,2.559189911283336,0.284629225730896,0.0012700911611318588,-0.07662974298000336,0.9555691480636597
3a4949b1-4342-440b-ae79-14d47949d470,e9b61042-4af0-4619-81e8-e1bc9229b938,1689708357439781795,-1.03569,-1.955032,-0.062943,0.016113,-0.131836,0.991211,-0.046596890365950216,-0.14627295911263188,2.5593567142203346,0.28454768657684326,0.0012889774516224861,-0.07664643973112106,0.9555920958518982
3a4949b1-4342-440b-ae79-14d47949d470,e9b61042-4af0-4619-81e8-e1bc9229b938,1689708357454253795,-1.098633,-1.89209,0.0,0.018066,-0.131836,0.992187,-0.046632537291712156,-0.1463022308925168,2.559540850932556,0.2844577133655548,0.0013088518753647804,-0.07666536420583725,0.9556173086166382
3a4949b1-4342-440b-ae79-14d47949d470,e9b61042-4af0-4619-81e8-e1bc9229b938,1689708357468725795,-1.218796,-1.955032,-0.062943,0.03418,-0.131836,0.994629,-0.04673453286053429,-0.14633862350787646,2.5595247201831155,0.28446072340011597,0.0013517318293452263,-0.07669725269079208,0.9556137919425964
3a4949b1-4342-440b-ae79-14d47949d470,e9b61042-4af0-4619-81e8-e1bc9229b938,1689708357483197795,-1.218796,-1.955032,0.120163,0.016113,-0.130371,0.978516,-0.04676793343732975,-0.14637943765016984,2.559494923796173,0.284472793340683,0.001360677182674408,-0.07672150433063507,0.9556082487106323
3a4949b1-4342-440b-ae79-14d47949d470,e9b61042-4af0-4619-81e8-e1bc9229b938,1689708357497669795,-0.730515,-2.134323,-0.185013,0.022949,-0.138184,0.991211,-0.04684203984523873,-0.1464042315639866,2.5594330293803167,0.28449898958206177,0.0013901414349675179,-0.07674392312765121,0.9555985927581787
3a4949b1-4342-440b-ae79-14d47949d470,e9b61042-4af0-4619-81e8-e1bc9229b938,1689708357512141795,-0.852585,-2.199173,-0.246048,0.017578,-0.129883,0.997559,-0.04689952572081388,-0.14640349664032234,2.5596030105012866,0.2844155728816986,0.0014242418110370636,-0.07675162702798843,0.9556227922439575
3a4949b1-4342-440b-ae79-14d47949d470,e9b61042-4af0-4619-81e8-e1bc9229b938,1689708357526613795,-1.096725,-2.260208,-0.368118,0.02832,-0.140625,0.977539,-0.04700756848255589,-0.14647169844487493,2.559802122504915,0.2843148112297058,0.0014736978337168694,-0.07679940015077591,0.9556488394737244
3a4949b1-4342-440b-ae79-14d47949d470,e9b61042-4af0-4619-81e8-e1bc9229b938,1689708357541085795,-1.220703,-2.319336,-0.185013,0.025391,-0.137207,0.994629,-0.04710356055226106,-0.14652736185568369,2.560024700686083,0.28420355916023254,0.001520112156867981,-0.07683944702148438,0.9556786417961121
3a4949b1-4342-440b-ae79-14d47949d470,e9b61042-4af0-4619-81e8-e1bc9229b938,1689708357555557795,-0.976562,-1.953125,-0.307083,0.026367,-0.146484,0.992187,-0.04717692906720863,-0.14660004458764564,2.5598890684116204,0.2842639684677124,0.001539507880806923,-0.0768846720457077,0.9556570053100586
3a4949b1-4342-440b-ae79-14d47949d470,e9b61042-4af0-4619-81e8-e1bc9229b938,1689708357570029795,-1.586914,-1.831055,-0.612259,0.017578,-0.138184,0.995605,-0.04721031790096564,-0.1466846602511951,2.5596638341727647,0.28436845541000366,0.0015346361324191093,-0.0769299790263176,0.9556223154067993
3a4949b1-4342-440b-ae79-14d47949d470,e9b61042-4af0-4619-81e8-e1bc9229b938,1689708357584501795,-1.403809,-1.89209,-0.490189,0.018066,-0.136719,0.986328,-0.04725029156860574,-0.1467551736754351,2.5594356770088824,0.2844744026660919,0.0015348084270954132,-0.07696949690580368,0.9555875658988953
3a4949b1-4342-440b-ae79-14d47949d470,e9b61042-4af0-4619-81e8-e1bc9229b938,1689708357598973795,-1.77002,-1.403809,-0.97847,0.017578,-0.139648,0.985352,-0.04725720935767938,-0.14686281402520532,2.559263836243282,0.2845538854598999,0.0015160106122493744,-0.07702198624610901,0.9555597305297852
3a4949b1-4342-440b-ae79-14d47949d470,e9b61042-4af0-4619-81e8-e1bc9229b938,1689708357613445795,-1.890182,-1.466751,-0.673294,0.014648,-0.125977,0.975586,-0.04725594234662118,-0.14693465346847173,2.559136113071828,0.28461340069770813,0.0015001380816102028,-0.07705619186162949,0.9555392265319824
3a4949b1-4342-440b-ae79-14d47949d470,e9b61042-4af0-4619-81e8-e1bc9229b938,1689708357616104795,-2.380371,-1.037598,-1.10054,0.03418,-0.144531,0.958496,-0.047305182934043996,-0.14711999803571335,2.558967268638284,0.2846881151199341,0.0014904709532856941,-0.07715178281068802,0.9555093050003052
3a4949b1-4342-440b-ae79-14d47949d470,e9b61042-4af0-4619-81e8-e1bc9229b938,1689708357618763795,-2.378464,-1.283646,-0.97847,0.022461,-0.141113,0.984375,-0.04732184256302752,-0.14727821587254689,2.5588168978375205,0.2847558557987213,0.0014698375016450882,-0.07722977548837662,0.9554828405380249
3a4949b1-4342-440b-ae79-14d47949d470,e9b61042-4af0-4619-81e8-e1bc9229b938,1689708357621422795,-2.441406,-1.281738,-1.161575,0.022461,-0.151855,0.967773,-0.047343566032372456,-0.14748921924163333,2.5586075972577143,0.2848503887653351,0.0014417292550206184,-0.0773337185382843,0.9554463028907776
3a4949b1-4342-440b-ae79-14d47949d470,e9b61042-4af0-4619-81e8-e1bc9229b938,1689708357624081795,-2.80571,-0.612259,-1.283646,0.029297,-0.140137,0.986328,-0.047338860988583385,-0.14767222959732446,2.5583766271351243,0.2849569022655487,0.0014041690155863762,-0.07742054760456085,0.9554075598716736
3a4949b1-4342-440b-ae79-14d47949d470,e9b61042-4af0-4619-81e8-e1bc9229b938,1689708357626740795,-3.108978,-0.732422,-1.527786,0.015625,-0.148926,0.972656,-0.047296539291207036,-0.1479175787255546,2.5581328582815948,0.28506961464881897,0.0013391338288784027,-0.07753176242113113,0.955365002155304
3a4949b1-4342-440b-ae79-14d47949d470,e9b61042-4af0-4619-81e8-e1bc9229b938,1689708357629399795,-3.234863,-1.037598,-1.588821,0.024902,-0.135254,0.988769,-0.04731070635920506,-0.14811061988024707,2.5577646038332666,0.2852407395839691,0.0013037677854299545,-0.07762613892555237,0.9553062915802002
3a4949b1-4342-440b-ae79-14d47949d470,e9b61042-4af0-4619-81e8-e1bc9229b938,1689708357632058795,-3.234863,-0.610352,-1.649857,0.025391,-0.125977,0.987793,-0.047295341129054196,-0.14826849573721157,2.5573705006765497,0.2854261100292206,0.0012583369389176369,-0.07769952714443207,0.9552450180053711
3a4949b1-4342-440b-ae79-14d47949d470,e9b61042-4af0-4619-81e8-e1bc9229b938,1689708357634717795,-3.232956,-0.490189,-1.649857,0.021484,-0.132812,0.993652,-0.04725482983504736,-0.14844820748427684,2.556976713276374,0.2856118083000183,0.0011977283284068108,-0.07777972519397736,0.9551830887794495
3a4949b1-4342-440b-ae79-14d47949d470,e9b61042-4af0-4619-81e8-e1bc9229b938,1689708357637376795,-3.110886,-0.490189,-1.649857,0.008301,-0.148926,0.996094,-0.04716357918502407,-0.1486773601992678,2.557072819221153,0.2855644226074219,0.0011247843503952026,-0.07787596434354782,0.9551895260810852
3a4949b1-4342-440b-ae79-14d47949d470,e9b61042-4af0-4619-81e8-e1bc9229b938,1689708357640035795,-2.929688,-0.671387,-1.649857,0.03125,-0.128906,1.002441,-0.04717303916246335,-0.14881268155343366,2.5572524014658473,0.28547531366348267,0.0011167526245117188,-0.07794177532196045,0.95521080493927
3a4949b1-4342-440b-ae79-14d47949d470,e9b61042-4af0-4619-81e8-e1bc9229b938,1689708357642694795,-2.80571,-0.669479,-1.527786,0.009766,-0.130371,1.002441,-0.04709889626383276,-0.14894476549664587,2.55747165609931,0.2853705883026123,0.0010708151385188103,-0.07799409329891205,0.955237865447998
3a4949b1-4342-440b-ae79-14d47949d470,e9b61042-4af0-4619-81e8-e1bc9229b938,1689708357645353795,-2.500534,-0.669479,-1.893997,0.007324,-0.138672,1.000977,-0.0470199488746107,-0.14908404007475973,2.5572777716433275,0.28546321392059326,0.001005435362458229,-0.07804937660694122,0.9552057385444641
3a4949b1-4342-440b-ae79-14d47949d470,e9b61042-4af0-4619-81e8-e1bc9229b938,1689708357648012795,-2.378464,-0.795364,-1.893997,0.019043,-0.134766,1.000488,-0.046995377193603846,-0.14919886421787779,2.557001305445503,0.2855936884880066,0.0009663235396146774,-0.07810078561306,0.9551625847816467
3a4949b1-4342-440b-ae79-14d47949d470,e9b61042-4af0-4619-81e8-e1bc9229b938,1689708357650671795,-1.829147,-0.612259,-1.649857,0.01123,-0.142578,1.008789,-0.04692266430305442,-0.14929750849215062,2.556736252559759,0.28572094440460205,0.0009069908410310745,-0.0781375840306282,0.9551215767860413
3a4949b1-4342-440b-ae79-14d47949d470,e9b61042-4af0-4619-81e8-e1bc9229b938,1689708357653330795,-1.403809,-0.854492,-1.527786,0.024414,-0.140137,1.009766,-0.04691729103535594,-0.14935392966329294,2.556581902551804,0.28579363226890564,0.0008902344852685928,-0.07816380262374878,0.9550976753234863
3a4949b1-4342-440b-ae79-14d47949d470,e9b61042-4af0-4619-81e8-e1bc9229b938,1689708357655989795,-1.340866,-0.795364,-1.527786,0.01709,-0.14209,1.004395,-0.046880253291426574,-0.14941611987665546,2.5564541456280927,0.2858547270298004,0.0008585602045059204,-0.07818823307752609,0.9550774097442627
3a4949b1-4342-440b-ae79-14d47949d470,e9b61042-4af0-4619-81e8-e1bc9229b938,1689708357658648795,-1.098633,-0.915527,-1.649857,0.018555,-0.133789,0.999512,-0.046860311825844284,-0.14943083486546413,2.556322227812715,0.2859181761741638,0.0008417535573244095,-0.07819245755672455,0.9550580978393555
3a4949b1-4342-440b-ae79-14d47949d470,e9b61042-4af0-4619-81e8-e1bc9229b938,1689708357661307795,-0.547409,-0.669479,-1.832962,0.011719,-0.140137,0.990234,-0.046799328621285656,-0.14943261233936228,2.5561838310206246,0.28598660230636597,0.0008069686591625214,-0.07818464189767838,0.95503830909729
3a4949b1-4342-440b-ae79-14d47949d470,e9b61042-4af0-4619-81e8-e1bc9229b938,1689708357664897795,-0.667572,-0.854492,-1.710892,0.015137,-0.125977,0.994629,-0.046763384318352134,-0.14938840839953593,2.5560385336509004,0.28605836629867554,0.0007905168458819389,-0.07815847545862198,0.955018937587738
3a4949b1-4342-440b-ae79-14d47949d470,e9b61042-4af0-4619-81e8-e1bc9229b938,1689708357668487795,-0.364304,-0.852585,-1.649857,0.005859,-0.147461,0.993164,-0.04669146547292507,-0.14940314786952263,2.555902198234004,0.28612595796585083,0.000748712569475174,-0.0781552717089653,0.9549989700317383
3a4949b1-4342-440b-ae79-14d47949d470,e9b61042-4af0-4619-81e8-e1bc9229b938,1689708357672077795,-0.120163,-0.97847,-1.405716,0.01416,-0.139648,0.987305,-0.04665896140354608,-0.14937403733482155,2.555780792782857,0.2861858308315277,0.0007326649501919746,-0.07813677936792374,0.954982578754425
3a4949b1-4342-440b-ae79-14d47949d470,e9b61042-4af0-4619-81e8-e1bc9229b938,1689708357675667795,-0.061035,-0.854492,-1.527786,0.014648,-0.126953,0.983887,-0.04662116042481598,-0.14929447139931834,2.555553025952895,0.2862977981567383,0.0007172431796789169,-0.0780934989452362,0.954952597618103
3a4949b1-4342-440b-ae79-14d47949d470,e9b61042-4af0-4619-81e8-e1bc9229b938,1689708357679257795,-0.12207,-1.220703,-1.405716,0.01416,-0.127441,0.983887,-0.04660794494366755,-0.1492220168411181,2.5553168081029143,0.28641268610954285,0.0007122065871953964,-0.07805713266134262,0.9549211263656616
3a4949b1-4342-440b-ae79-14d47949d470,e9b61042-4af0-4619-81e8-e1bc9229b938,1689708357682847795,0.123978,-1.157761,-1.344681,0.009766,-0.137207,0.987793,-0.04657183729161841,-0.14916614375707535,2.555086501018214,0.28652527928352356,0.0006940755993127823,-0.07802539318799973,0.9548899531364441
3a4949b1-4342-440b-ae79-14d47949d470,e9b61042-4af0-4619-81e8-e1bc9229b938,1689708357686437795,0.123978,-1.039505,-1.405716,0.015625,-0.13623,0.999023,-0.04654773101912215,-0.1491001652039959,2.5551273224817144,0.286508172750473,0.0006937198340892792,-0.07799045741558075,0.954897940158844
3a4949b1-4342-440b-ae79-14d47949d470,e9b61042-4af0-4619-81e8-e1bc9229b938,1689708357690027795,0.123978,-1.466751,-1.527786,0.023926,-0.128418,0.991699,-0.04659038979368191,-0.149008651175711,2.5552096820748034,0.2864691913127899,0.0007305573672056198,-0.07795289158821106,0.9549126625061035
3a4949b1-4342-440b-ae79-14d47949d470,e9b61042-4af0-4619-81e8-e1bc9229b938,1689708357693617795,-0.059128,-1.283646,-1.588821,0.021484,-0.150391,0.989746,-0.04661085847460299,-0.14901446265880458,2.555298743846544,0.28642573952674866,0.0007429616525769234,-0.07795856148004532,0.9549252390861511
3a4949b1-4342-440b-ae79-14d47949d470,e9b61042-4af0-4619-81e8-e1bc9229b938,1689708357697207795,0.0,-1.220703,-1.22261,0.02002,-0.133301,0.975586,-0.04661941211801937,-0.14896095655715366,2.5551293687294887,0.2865074574947357,0.0007481910288333893,-0.07793433219194412,0.9549026489257812
3a4949b1-4342-440b-ae79-14d47949d470,e9b61042-4af0-4619-81e8-e1bc9229b938,1689708357700797795,0.0,-1.586914,-1.22261,0.009277,-0.141113,0.979492,-0.04661378659297289,-0.1489350005301206,2.5549098439452984,0.2866130471229553,0.0007407180964946747,-0.07792122662067413,0.9548720717430115
3a4949b1-4342-440b-ae79-14d47949d470,e9b61042-4af0-4619-81e8-e1bc9229b938,1689708357704387795,-0.364304,-1.340866,-1.22261,0.011719,-0.138184,0.980469,-0.0465990971104959,-0.1489251904783281,2.55467779165652,0.28672462701797485,0.0007260842248797417,-0.0779145285487175,0.9548391103744507
